trial,response,rt,c_pedestal,condition,wave_length,fix_time,sti_time,presti_time,intersti_time,phase,n_pix,order,c_comparison
1,left,1.1393270379994647,0.035,4,24,120,24,120,240,0.0,142,1,0.0773
2,left,0.7806340710012591,0.005,3,24,120,24,120,240,0.0,142,1,0.0091
3,left,0.776470992999748,0.035,3,24,120,24,120,240,0.0,142,2,0.0634
4,left,0.6762974400007806,0.035,6,24,120,24,120,240,0.0,142,2,0.1148
5,left,2.49308314100017,0.0183,1,24,120,24,120,240,0.0,142,1,0.0223
6,right,2.4810308440009976,0.035,6,24,120,24,120,240,0.0,142,1,0.1148
7,left,2.1174637360018096,0.0096,3,24,120,24,120,240,0.0,142,2,0.0174
8,right,3.76721229100076,0.0096,3,24,120,24,120,240,0.0,142,1,0.0174
9,left,3.251938176001204,0.035,7,24,120,24,120,240,0.0,142,2,0.14
10,right,3.094081784998707,0.035,7,24,120,24,120,240,0.0,142,1,0.14
11,right,5.076445472999694,0.005,7,24,120,24,120,240,0.0,142,1,0.02
12,right,0.9727572560004774,0.0096,1,24,120,24,120,240,0.0,142,2,0.0117
13,right,0.805148220000774,0.035,3,24,120,24,120,240,0.0,142,1,0.0634
14,right,0.7792621530006727,0.0096,6,24,120,24,120,240,0.0,142,1,0.0315
15,left,0.9228655830011121,0.0183,3,24,120,24,120,240,0.0,142,2,0.0331
16,right,1.2434317510014807,0.0096,1,24,120,24,120,240,0.0,142,1,0.0117
17,right,0.9439638540006854,0.0183,3,24,120,24,120,240,0.0,142,1,0.0331
18,left,2.5881631200008997,0.035,2,24,120,24,120,240,0.0,142,2,0.052
19,left,4.741798383001878,0.035,4,24,120,24,120,240,0.0,142,2,0.0773
20,right,3.3435629430005065,0.035,5,24,120,24,120,240,0.0,142,1,0.0942
21,left,3.7809674050004105,0.0183,4,24,120,24,120,240,0.0,142,2,0.0404
22,left,3.3347881300014706,0.0183,6,24,120,24,120,240,0.0,142,2,0.06
23,left,4.193662644000142,0.005,3,24,120,24,120,240,0.0,142,2,0.0091
24,right,1.009662135000326,0.0183,2,24,120,24,120,240,0.0,142,1,0.0272
25,right,0.8188650209995103,0.0183,7,24,120,24,120,240,0.0,142,1,0.0732
26,right,0.7521030860007158,0.005,5,24,120,24,120,240,0.0,142,1,0.0135
27,right,0.6887407280009938,0.0183,5,24,120,24,120,240,0.0,142,1,0.0493
28,right,0.6597326920000341,0.0183,6,24,120,24,120,240,0.0,142,1,0.06
29,left,0.7836075730010634,0.035,5,24,120,24,120,240,0.0,142,2,0.0942
30,left,6.74975921999976,0.0096,6,24,120,24,120,240,0.0,142,2,0.0315
31,left,0.9099125680004363,0.035,1,24,120,24,120,240,0.0,142,1,0.0427
32,right,15.47642231700047,0.005,5,24,120,24,120,240,0.0,142,2,0.0135
33,right,0.7588476430009905,0.005,4,24,120,24,120,240,0.0,142,2,0.011
34,right,1.4643597680005769,0.0096,2,24,120,24,120,240,0.0,142,2,0.0143
35,right,0.5884693400003016,0.0096,5,24,120,24,120,240,0.0,142,1,0.0258
36,left,1.164124074000938,0.005,1,24,120,24,120,240,0.0,142,1,0.0061
37,left,0.9627567920015281,0.005,1,24,120,24,120,240,0.0,142,2,0.0061
38,left,0.5100117900001351,0.0183,1,24,120,24,120,240,0.0,142,2,0.0223
39,right,1.009550245000355,0.035,1,24,120,24,120,240,0.0,142,2,0.0427
40,left,0.6303488200010179,0.005,4,24,120,24,120,240,0.0,142,1,0.011
41,left,0.8628715960003319,0.005,2,24,120,24,120,240,0.0,142,2,0.0074
42,right,0.8766365870014852,0.0096,7,24,120,24,120,240,0.0,142,1,0.0384
43,right,9.706296545000441,0.005,2,24,120,24,120,240,0.0,142,1,0.0074
44,left,0.780252720000135,0.0096,2,24,120,24,120,240,0.0,142,1,0.0143
45,right,1.0345514479995472,0.035,2,24,120,24,120,240,0.0,142,1,0.052
46,left,0.6054271920002066,0.0183,7,24,120,24,120,240,0.0,142,2,0.0732
47,left,0.5897776520014304,0.0096,7,24,120,24,120,240,0.0,142,2,0.0384
48,left,0.5304773739990196,0.0096,4,24,120,24,120,240,0.0,142,2,0.0212
49,left,1.1423696649999329,0.0183,2,24,120,24,120,240,0.0,142,2,0.0272
50,left,0.6852985360001185,0.005,6,24,120,24,120,240,0.0,142,2,0.0164
51,right,1.0269375869993382,0.005,6,24,120,24,120,240,0.0,142,1,0.0164
52,left,1.083799389001797,0.005,7,24,120,24,120,240,0.0,142,2,0.02
53,right,0.8391861800009792,0.0096,4,24,120,24,120,240,0.0,142,1,0.0212
54,left,0.7702878620002593,0.0096,5,24,120,24,120,240,0.0,142,2,0.0258
55,right,0.934850573001313,0.0183,4,24,120,24,120,240,0.0,142,1,0.0404
56,left,0.809321421002096,0.0183,5,24,120,24,120,240,0.0,142,2,0.0493
57,left,0.9646903540015046,0.0096,4,24,120,24,120,240,0.0,142,2,0.0212
58,right,1.256309335001788,0.005,4,24,120,24,120,240,0.0,142,1,0.011
59,left,0.767516631000035,0.0183,3,24,120,24,120,240,0.0,142,2,0.0331
60,right,0.7306353590010985,0.035,2,24,120,24,120,240,0.0,142,1,0.052
61,left,3.2348864380001032,0.005,5,24,120,24,120,240,0.0,142,2,0.0135
62,left,0.9641489389996423,0.035,5,24,120,24,120,240,0.0,142,2,0.0942
63,left,6.384817094001846,0.005,7,24,120,24,120,240,0.0,142,2,0.02
64,left,0.7729173670013552,0.0183,2,24,120,24,120,240,0.0,142,2,0.0272
65,right,1.5049139439997816,0.0096,1,24,120,24,120,240,0.0,142,2,0.0117
66,left,0.4138853599997674,0.0183,1,24,120,24,120,240,0.0,142,2,0.0223
67,right,0.5639081429999351,0.0096,2,24,120,24,120,240,0.0,142,1,0.0143
68,left,0.7885819380007888,0.005,2,24,120,24,120,240,0.0,142,1,0.0074
69,right,0.9095748679992539,0.0096,6,24,120,24,120,240,0.0,142,1,0.0315
70,left,0.7225237500006187,0.0183,5,24,120,24,120,240,0.0,142,2,0.0493
71,right,0.7110949130001245,0.0183,7,24,120,24,120,240,0.0,142,1,0.0732
72,left,1.0266357470009098,0.035,4,24,120,24,120,240,0.0,142,2,0.0773
73,left,2.531214977001582,0.0096,3,24,120,24,120,240,0.0,142,1,0.0174
74,left,1.3471407560009538,0.005,1,24,120,24,120,240,0.0,142,1,0.0061
75,right,2.237488475000646,0.0096,5,24,120,24,120,240,0.0,142,1,0.0258
76,right,0.7600723120012844,0.0096,4,24,120,24,120,240,0.0,142,1,0.0212
77,right,0.6274609400006739,0.0183,6,24,120,24,120,240,0.0,142,1,0.06
78,right,0.7714993640001921,0.035,4,24,120,24,120,240,0.0,142,1,0.0773
79,right,1.2430469310002081,0.0096,7,24,120,24,120,240,0.0,142,1,0.0384
80,right,19.309462068000357,0.035,5,24,120,24,120,240,0.0,142,1,0.0942
81,right,0.8814780590000737,0.005,7,24,120,24,120,240,0.0,142,1,0.02
82,left,0.7931719419993897,0.035,6,24,120,24,120,240,0.0,142,2,0.1148
83,left,0.8597555610012932,0.005,4,24,120,24,120,240,0.0,142,2,0.011
84,right,0.5848400909999327,0.0183,1,24,120,24,120,240,0.0,142,1,0.0223
85,right,0.5345942589992774,0.005,6,24,120,24,120,240,0.0,142,1,0.0164
86,left,4.32657602099971,0.005,1,24,120,24,120,240,0.0,142,2,0.0061
87,left,1.3175594080021256,0.035,1,24,120,24,120,240,0.0,142,1,0.0427
88,left,0.6845368910016987,0.0096,5,24,120,24,120,240,0.0,142,2,0.0258
89,left,1.3400281180020102,0.035,1,24,120,24,120,240,0.0,142,2,0.0427
90,left,0.5602190560020972,0.0183,4,24,120,24,120,240,0.0,142,2,0.0404
91,right,0.6315184710001631,0.035,7,24,120,24,120,240,0.0,142,1,0.14
92,right,0.713776640001015,0.035,6,24,120,24,120,240,0.0,142,1,0.1148
93,left,1.2759325470015028,0.0183,2,24,120,24,120,240,0.0,142,1,0.0272
94,left,1.7315296190008667,0.0096,3,24,120,24,120,240,0.0,142,2,0.0174
95,right,1.6346485989997745,0.0096,1,24,120,24,120,240,0.0,142,1,0.0117
96,left,1.4346889550015476,0.0183,6,24,120,24,120,240,0.0,142,2,0.06
97,left,33.59401647900086,0.035,2,24,120,24,120,240,0.0,142,2,0.052
98,left,1.07701264500065,0.035,3,24,120,24,120,240,0.0,142,2,0.0634
99,left,2.2426007420017413,0.005,2,24,120,24,120,240,0.0,142,2,0.0074
100,left,0.9555462740008807,0.0183,7,24,120,24,120,240,0.0,142,2,0.0732
101,left,0.5850556760015024,0.035,7,24,120,24,120,240,0.0,142,2,0.14
102,right,1.4472355070010963,0.005,3,24,120,24,120,240,0.0,142,2,0.0091
103,left,0.5855323050000152,0.005,3,24,120,24,120,240,0.0,142,1,0.0091
104,left,0.42151144399940677,0.0096,2,24,120,24,120,240,0.0,142,2,0.0143
105,right,0.5815986910001811,0.0183,5,24,120,24,120,240,0.0,142,1,0.0493
106,left,1.1391543530007766,0.0096,6,24,120,24,120,240,0.0,142,2,0.0315
107,right,1.2059500520008442,0.0183,3,24,120,24,120,240,0.0,142,1,0.0331
108,right,0.722243795000395,0.0183,4,24,120,24,120,240,0.0,142,1,0.0404
109,left,1.5803784710005857,0.005,5,24,120,24,120,240,0.0,142,1,0.0135
110,left,1.272375518001354,0.005,6,24,120,24,120,240,0.0,142,2,0.0164
111,right,0.6719444699992891,0.035,3,24,120,24,120,240,0.0,142,1,0.0634
112,left,0.6724203370013129,0.0096,7,24,120,24,120,240,0.0,142,2,0.0384
113,right,0.5720493140015606,0.035,2,24,120,24,120,240,0.0,142,1,0.052
114,right,1.0943213340015063,0.0183,3,24,120,24,120,240,0.0,142,1,0.0331
115,right,0.5393201090009825,0.0096,7,24,120,24,120,240,0.0,142,1,0.0384
116,left,0.6852578310008539,0.035,5,24,120,24,120,240,0.0,142,2,0.0942
117,left,0.7048703269992984,0.0183,3,24,120,24,120,240,0.0,142,2,0.0331
118,left,0.6853319950005243,0.0183,6,24,120,24,120,240,0.0,142,2,0.06
119,right,0.7095360230014194,0.035,7,24,120,24,120,240,0.0,142,1,0.14
120,left,0.7602799329997652,0.035,4,24,120,24,120,240,0.0,142,2,0.0773
121,left,1.40631808299986,0.005,2,24,120,24,120,240,0.0,142,2,0.0074
122,right,0.6429100059995108,0.0096,4,24,120,24,120,240,0.0,142,1,0.0212
123,left,4.771999308000886,0.035,7,24,120,24,120,240,0.0,142,2,0.14
124,left,3.6687790310006676,0.0183,7,24,120,24,120,240,0.0,142,2,0.0732
125,left,0.7471570950001478,0.035,3,24,120,24,120,240,0.0,142,2,0.0634
126,right,0.8218276349998632,0.035,6,24,120,24,120,240,0.0,142,1,0.1148
127,left,0.5432131710003887,0.0183,5,24,120,24,120,240,0.0,142,2,0.0493
128,right,0.7726909020002495,0.035,5,24,120,24,120,240,0.0,142,1,0.0942
129,right,1.3523640650000743,0.0183,2,24,120,24,120,240,0.0,142,1,0.0272
130,left,1.1231665440009237,0.0096,7,24,120,24,120,240,0.0,142,2,0.0384
131,left,1.513347996999073,0.0096,2,24,120,24,120,240,0.0,142,1,0.0143
132,right,0.6979924320003192,0.035,1,24,120,24,120,240,0.0,142,1,0.0427
133,left,1.026998134000678,0.005,1,24,120,24,120,240,0.0,142,1,0.0061
134,right,1.1930153739995148,0.005,3,24,120,24,120,240,0.0,142,2,0.0091
135,left,0.479890852000608,0.0183,2,24,120,24,120,240,0.0,142,2,0.0272
136,right,1.0263294269989274,0.005,5,24,120,24,120,240,0.0,142,2,0.0135
137,left,0.5308139259996096,0.0096,5,24,120,24,120,240,0.0,142,2,0.0258
138,right,0.5815100029994937,0.0096,5,24,120,24,120,240,0.0,142,1,0.0258
139,left,0.4896263970003929,0.0183,1,24,120,24,120,240,0.0,142,2,0.0223
140,left,1.259576852000464,0.0183,4,24,120,24,120,240,0.0,142,2,0.0404
141,left,0.9428171450017544,0.005,6,24,120,24,120,240,0.0,142,1,0.0164
142,right,0.8059027550007158,0.005,2,24,120,24,120,240,0.0,142,1,0.0074
143,left,2.051939005999884,0.0096,4,24,120,24,120,240,0.0,142,2,0.0212
144,right,0.5858412240013422,0.005,3,24,120,24,120,240,0.0,142,1,0.0091
145,right,0.8764339770004881,0.0096,3,24,120,24,120,240,0.0,142,1,0.0174
146,left,2.01811808200182,0.0096,1,24,120,24,120,240,0.0,142,2,0.0117
147,right,0.8931422000005114,0.005,6,24,120,24,120,240,0.0,142,2,0.0164
148,right,0.48884029800137796,0.005,4,24,120,24,120,240,0.0,142,1,0.011
149,left,0.5808497649995843,0.0096,6,24,120,24,120,240,0.0,142,2,0.0315
150,right,0.7766265480004222,0.0183,6,24,120,24,120,240,0.0,142,1,0.06
151,right,2.851765964000151,0.005,5,24,120,24,120,240,0.0,142,1,0.0135
152,right,0.8143492309991416,0.0096,6,24,120,24,120,240,0.0,142,1,0.0315
153,left,0.4641452070009109,0.0096,3,24,120,24,120,240,0.0,142,2,0.0174
154,right,0.930632339001022,0.005,7,24,120,24,120,240,0.0,142,1,0.02
155,right,0.6762456240012398,0.0183,5,24,120,24,120,240,0.0,142,1,0.0493
156,left,0.8053816089995962,0.005,1,24,120,24,120,240,0.0,142,2,0.0061
157,right,0.6678554420013825,0.0183,4,24,120,24,120,240,0.0,142,1,0.0404
158,right,0.7128592829994886,0.035,1,24,120,24,120,240,0.0,142,2,0.0427
159,right,3.3341644649990485,0.0183,1,24,120,24,120,240,0.0,142,1,0.0223
160,left,2.9228719860002457,0.005,7,24,120,24,120,240,0.0,142,2,0.02
161,right,0.6257832280007278,0.035,3,24,120,24,120,240,0.0,142,1,0.0634
162,left,1.0022136620009405,0.035,6,24,120,24,120,240,0.0,142,2,0.1148
163,right,0.5811782010005118,0.035,4,24,120,24,120,240,0.0,142,1,0.0773
164,left,0.5770532630012895,0.035,2,24,120,24,120,240,0.0,142,2,0.052
165,left,0.6514604590011004,0.005,4,24,120,24,120,240,0.0,142,2,0.011
166,right,0.8772387549997802,0.0096,2,24,120,24,120,240,0.0,142,2,0.0143
167,left,1.212958415000685,0.0096,1,24,120,24,120,240,0.0,142,1,0.0117
168,right,0.7673696729998483,0.0183,7,24,120,24,120,240,0.0,142,1,0.0732
169,right,0.9512243609988218,0.035,2,24,120,24,120,240,0.0,142,1,0.052
170,left,2.0398467459999665,0.005,6,24,120,24,120,240,0.0,142,2,0.0164
171,left,0.6681859899999836,0.035,3,24,120,24,120,240,0.0,142,2,0.0634
172,right,0.6178116440005397,0.035,6,24,120,24,120,240,0.0,142,1,0.1148
173,left,0.5925040580004861,0.035,7,24,120,24,120,240,0.0,142,2,0.14
174,right,0.5307558460008295,0.0183,4,24,120,24,120,240,0.0,142,1,0.0404
175,left,4.243022398999528,0.0096,7,24,120,24,120,240,0.0,142,2,0.0384
176,left,2.6677929580000637,0.0183,7,24,120,24,120,240,0.0,142,2,0.0732
177,left,0.7641549330000998,0.035,6,24,120,24,120,240,0.0,142,2,0.1148
178,left,0.9967895120007597,0.0096,3,24,120,24,120,240,0.0,142,1,0.0174
179,right,1.110017268001684,0.005,1,24,120,24,120,240,0.0,142,2,0.0061
180,left,0.7768247180010803,0.035,4,24,120,24,120,240,0.0,142,2,0.0773
181,right,1.1931528940003773,0.035,3,24,120,24,120,240,0.0,142,1,0.0634
182,right,0.8272590180004045,0.005,7,24,120,24,120,240,0.0,142,1,0.02
183,right,2.0096598290001566,0.0183,5,24,120,24,120,240,0.0,142,1,0.0493
184,right,0.7934570910001639,0.035,2,24,120,24,120,240,0.0,142,2,0.052
185,left,0.6013381020002271,0.035,5,24,120,24,120,240,0.0,142,2,0.0942
186,right,1.4352534589997958,0.035,1,24,120,24,120,240,0.0,142,1,0.0427
187,left,1.2269825860003039,0.0183,1,24,120,24,120,240,0.0,142,2,0.0223
188,right,0.645427572000699,0.0096,7,24,120,24,120,240,0.0,142,1,0.0384
189,right,0.8940115200002765,0.005,4,24,120,24,120,240,0.0,142,1,0.011
190,right,0.6136302250015433,0.0183,7,24,120,24,120,240,0.0,142,1,0.0732
191,left,0.6548303990002751,0.035,1,24,120,24,120,240,0.0,142,2,0.0427
192,left,0.9389279859988164,0.005,1,24,120,24,120,240,0.0,142,1,0.0061
193,right,0.5012603450013557,0.0096,1,24,120,24,120,240,0.0,142,1,0.0117
194,left,2.2353537599992706,0.035,4,24,120,24,120,240,0.0,142,1,0.0773
195,left,0.6431640050013812,0.0183,5,24,120,24,120,240,0.0,142,2,0.0493
196,right,0.6095967189994553,0.0096,2,24,120,24,120,240,0.0,142,1,0.0143
197,right,1.0771116130017617,0.005,5,24,120,24,120,240,0.0,142,2,0.0135
198,left,1.0062848039997334,0.0183,6,24,120,24,120,240,0.0,142,2,0.06
199,right,0.7429956140003924,0.005,3,24,120,24,120,240,0.0,142,1,0.0091
200,left,1.4342552069992962,0.005,6,24,120,24,120,240,0.0,142,1,0.0164
201,right,1.4090096820018516,0.005,7,24,120,24,120,240,0.0,142,2,0.02
202,right,0.5931637510002474,0.0096,2,24,120,24,120,240,0.0,142,2,0.0143
203,right,0.47595829000056256,0.0096,5,24,120,24,120,240,0.0,142,1,0.0258
204,right,0.6644568580013583,0.005,2,24,120,24,120,240,0.0,142,1,0.0074
205,left,0.48479029800000717,0.0183,3,24,120,24,120,240,0.0,142,2,0.0331
206,right,0.5432223410007282,0.0183,1,24,120,24,120,240,0.0,142,1,0.0223
207,right,0.826374031999876,0.0183,6,24,120,24,120,240,0.0,142,1,0.06
208,right,0.6981801800011453,0.0096,6,24,120,24,120,240,0.0,142,1,0.0315
209,right,1.2178441200012458,0.0096,4,24,120,24,120,240,0.0,142,2,0.0212
210,left,1.1472079650011437,0.0096,6,24,120,24,120,240,0.0,142,2,0.0315
211,right,1.001297657001487,0.035,5,24,120,24,120,240,0.0,142,1,0.0942
212,right,0.7554873699991731,0.005,4,24,120,24,120,240,0.0,142,2,0.011
213,left,0.8185147130006953,0.0096,3,24,120,24,120,240,0.0,142,2,0.0174
214,right,0.7391590220013313,0.0183,2,24,120,24,120,240,0.0,142,1,0.0272
215,left,0.710356633999254,0.005,5,24,120,24,120,240,0.0,142,1,0.0135
216,left,0.9550870660004875,0.0183,4,24,120,24,120,240,0.0,142,2,0.0404
217,left,0.4556025669990049,0.0183,2,24,120,24,120,240,0.0,142,2,0.0272
218,left,0.5273535120013548,0.0096,5,24,120,24,120,240,0.0,142,2,0.0258
219,left,0.6562303459995746,0.0096,1,24,120,24,120,240,0.0,142,2,0.0117
220,left,0.839871910000511,0.005,2,24,120,24,120,240,0.0,142,2,0.0074
221,right,0.780347513000379,0.0183,3,24,120,24,120,240,0.0,142,1,0.0331
222,right,0.7221447140000237,0.0096,4,24,120,24,120,240,0.0,142,1,0.0212
223,left,0.621353161001025,0.005,3,24,120,24,120,240,0.0,142,2,0.0091
224,right,0.9097189860003709,0.035,7,24,120,24,120,240,0.0,142,1,0.14
