trial,response,rt,c_pedestal,condition,wave_length,fix_time,sti_time,presti_time,intersti_time,phase,n_pix,order,c_comparison
1,left,0.8768996830003744,0.005,6,24,120,24,120,240,0.0,142,2,0.0164
2,right,0.8435921860000235,0.0183,3,24,120,24,120,240,0.0,142,2,0.0331
3,right,0.5681815590000951,0.0096,6,24,120,24,120,240,0.0,142,1,0.0315
4,left,0.7969206200000372,0.0096,6,24,120,24,120,240,0.0,142,2,0.0315
5,right,0.5513257180000437,0.0183,4,24,120,24,120,240,0.0,142,1,0.0404
6,right,0.9137867029999143,0.005,3,24,120,24,120,240,0.0,142,2,0.0091
7,right,0.8122263509999357,0.0096,1,24,120,24,120,240,0.0,142,2,0.0117
8,right,0.7603374090003854,0.0096,4,24,120,24,120,240,0.0,142,1,0.0212
9,left,0.9848186280005393,0.0183,5,24,120,24,120,240,0.0,142,2,0.0493
10,right,0.5387781780000296,0.0096,2,24,120,24,120,240,0.0,142,1,0.0143
11,right,0.6807712350000656,0.005,1,24,120,24,120,240,0.0,142,1,0.0061
12,left,0.5646156940001674,0.0183,6,24,120,24,120,240,0.0,142,2,0.06
13,right,0.5258670329999404,0.0096,7,24,120,24,120,240,0.0,142,1,0.0384
14,left,3.1312362500002564,0.005,2,24,120,24,120,240,0.0,142,1,0.0074
15,left,0.5836433760000546,0.0183,7,24,120,24,120,240,0.0,142,2,0.0732
16,right,0.6395552580002004,0.035,2,24,120,24,120,240,0.0,142,1,0.052
17,right,0.5974974870000551,0.035,3,24,120,24,120,240,0.0,142,1,0.0634
18,left,0.6384029690002535,0.005,4,24,120,24,120,240,0.0,142,2,0.011
19,right,0.6853339290000804,0.035,7,24,120,24,120,240,0.0,142,1,0.14
20,right,0.6056629920003616,0.035,6,24,120,24,120,240,0.0,142,1,0.1148
21,left,0.5686004560002402,0.0183,1,24,120,24,120,240,0.0,142,2,0.0223
22,left,0.6975010510004722,0.0096,1,24,120,24,120,240,0.0,142,1,0.0117
23,right,0.6014093650001087,0.005,6,24,120,24,120,240,0.0,142,1,0.0164
24,left,0.41860810800017134,0.035,6,24,120,24,120,240,0.0,142,2,0.1148
25,left,0.7883687260000443,0.0096,3,24,120,24,120,240,0.0,142,2,0.0174
26,right,0.5769568790005906,0.0096,4,24,120,24,120,240,0.0,142,2,0.0212
27,right,0.47197354500030997,0.0183,2,24,120,24,120,240,0.0,142,1,0.0272
28,right,0.6183148470004198,0.0096,3,24,120,24,120,240,0.0,142,1,0.0174
29,right,0.5310928890003197,0.005,5,24,120,24,120,240,0.0,142,2,0.0135
30,left,0.6057014500001969,0.035,2,24,120,24,120,240,0.0,142,2,0.052
31,left,0.5055814700003793,0.0096,7,24,120,24,120,240,0.0,142,2,0.0384
32,right,0.5269101900003079,0.0183,6,24,120,24,120,240,0.0,142,1,0.06
33,right,0.4522080710003138,0.0183,7,24,120,24,120,240,0.0,142,1,0.0732
34,right,1.5190370950003853,0.005,1,24,120,24,120,240,0.0,142,2,0.0061
35,right,0.5399568379998527,0.0183,3,24,120,24,120,240,0.0,142,1,0.0331
36,right,0.5058548020001581,0.0096,5,24,120,24,120,240,0.0,142,1,0.0258
37,left,0.6091402810002364,0.0183,2,24,120,24,120,240,0.0,142,2,0.0272
38,left,0.46011102800002845,0.0096,5,24,120,24,120,240,0.0,142,2,0.0258
39,right,0.5139523299999382,0.005,2,24,120,24,120,240,0.0,142,2,0.0074
40,right,0.5220542600000044,0.005,5,24,120,24,120,240,0.0,142,1,0.0135
41,right,0.694141750000199,0.005,3,24,120,24,120,240,0.0,142,1,0.0091
42,right,0.7642298569999184,0.035,1,24,120,24,120,240,0.0,142,1,0.0427
43,left,0.5179278040004647,0.0096,2,24,120,24,120,240,0.0,142,2,0.0143
44,left,0.4605781730006129,0.035,5,24,120,24,120,240,0.0,142,2,0.0942
45,left,0.5607069430002412,0.035,7,24,120,24,120,240,0.0,142,2,0.14
46,left,0.48862318600004073,0.005,7,24,120,24,120,240,0.0,142,2,0.02
47,right,0.5972901400004957,0.005,7,24,120,24,120,240,0.0,142,1,0.02
48,right,0.8229757799999788,0.005,4,24,120,24,120,240,0.0,142,1,0.011
49,right,1.2052739499999916,0.0183,1,24,120,24,120,240,0.0,142,1,0.0223
50,left,0.718387125999925,0.035,4,24,120,24,120,240,0.0,142,2,0.0773
51,right,0.535119911000038,0.0183,5,24,120,24,120,240,0.0,142,1,0.0493
52,right,0.5100253040000098,0.035,4,24,120,24,120,240,0.0,142,1,0.0773
53,right,0.8676945629999864,0.035,1,24,120,24,120,240,0.0,142,2,0.0427
54,left,1.0751838959999986,0.035,3,24,120,24,120,240,0.0,142,2,0.0634
55,right,0.5934105179999278,0.035,5,24,120,24,120,240,0.0,142,1,0.0942
56,left,0.6349454270002752,0.0183,4,24,120,24,120,240,0.0,142,2,0.0404
57,left,0.6436747070001729,0.005,2,24,120,24,120,240,0.0,142,2,0.0074
58,left,0.6051106330000948,0.0183,2,24,120,24,120,240,0.0,142,2,0.0272
59,right,0.8472964229999889,0.0183,4,24,120,24,120,240,0.0,142,1,0.0404
60,right,0.6760528120003073,0.035,6,24,120,24,120,240,0.0,142,1,0.1148
61,right,0.4522053940004298,0.0096,5,24,120,24,120,240,0.0,142,1,0.0258
62,right,0.4559485540003152,0.005,3,24,120,24,120,240,0.0,142,2,0.0091
63,right,0.5728009330000532,0.035,4,24,120,24,120,240,0.0,142,1,0.0773
64,left,0.46616493999999875,0.0183,4,24,120,24,120,240,0.0,142,2,0.0404
65,right,0.5441054480002094,0.005,5,24,120,24,120,240,0.0,142,2,0.0135
66,right,0.5551467109999066,0.0183,2,24,120,24,120,240,0.0,142,1,0.0272
67,right,0.5348144650001814,0.0096,1,24,120,24,120,240,0.0,142,1,0.0117
68,left,0.980909977000465,0.0096,4,24,120,24,120,240,0.0,142,2,0.0212
69,left,0.977102215999821,0.035,4,24,120,24,120,240,0.0,142,2,0.0773
70,left,0.5464757090003332,0.0096,2,24,120,24,120,240,0.0,142,2,0.0143
71,right,0.4557176650000656,0.0183,7,24,120,24,120,240,0.0,142,1,0.0732
72,left,0.9722636480000801,0.005,3,24,120,24,120,240,0.0,142,1,0.0091
73,left,2.4635416999999507,0.0183,1,24,120,24,120,240,0.0,142,2,0.0223
74,left,0.5224285520002923,0.0183,3,24,120,24,120,240,0.0,142,2,0.0331
75,right,0.5930348130000311,0.005,7,24,120,24,120,240,0.0,142,1,0.02
76,right,0.5761764960002438,0.0096,6,24,120,24,120,240,0.0,142,1,0.0315
77,right,0.5554150940001819,0.0183,3,24,120,24,120,240,0.0,142,1,0.0331
78,left,0.8802254180004638,0.005,6,24,120,24,120,240,0.0,142,2,0.0164
79,right,0.713386969000112,0.035,1,24,120,24,120,240,0.0,142,1,0.0427
80,left,0.6388717790000555,0.0096,7,24,120,24,120,240,0.0,142,2,0.0384
81,left,0.5766140460004863,0.005,7,24,120,24,120,240,0.0,142,2,0.02
82,right,0.6675914570000714,0.035,1,24,120,24,120,240,0.0,142,2,0.0427
83,right,0.4720646300002045,0.035,7,24,120,24,120,240,0.0,142,1,0.14
84,left,0.5809434540001348,0.035,6,24,120,24,120,240,0.0,142,2,0.1148
85,right,0.5476012130002346,0.0096,3,24,120,24,120,240,0.0,142,1,0.0174
86,left,0.5976268940003138,0.0183,6,24,120,24,120,240,0.0,142,2,0.06
87,left,0.4598887130005096,0.0183,7,24,120,24,120,240,0.0,142,2,0.0732
88,left,0.5604672460003712,0.0096,3,24,120,24,120,240,0.0,142,2,0.0174
89,right,0.6186826000002839,0.0096,2,24,120,24,120,240,0.0,142,1,0.0143
90,right,0.559548174000156,0.0096,1,24,120,24,120,240,0.0,142,2,0.0117
91,right,0.480370323000443,0.035,5,24,120,24,120,240,0.0,142,1,0.0942
92,left,0.6683544570000777,0.035,3,24,120,24,120,240,0.0,142,2,0.0634
93,right,0.5712344350004059,0.0183,5,24,120,24,120,240,0.0,142,1,0.0493
94,right,0.5309367780000684,0.005,1,24,120,24,120,240,0.0,142,1,0.0061
95,left,0.5889942880003218,0.0096,5,24,120,24,120,240,0.0,142,2,0.0258
96,right,0.7980958280004415,0.005,1,24,120,24,120,240,0.0,142,2,0.0061
97,left,0.5261754810003367,0.0096,6,24,120,24,120,240,0.0,142,2,0.0315
98,right,0.7269817119999971,0.005,4,24,120,24,120,240,0.0,142,2,0.011
99,right,0.5095018160004656,0.035,3,24,120,24,120,240,0.0,142,1,0.0634
100,left,0.6262518640000962,0.005,2,24,120,24,120,240,0.0,142,1,0.0074
101,left,0.45934850200001165,0.0183,5,24,120,24,120,240,0.0,142,2,0.0493
102,left,0.4857918620004966,0.035,7,24,120,24,120,240,0.0,142,2,0.14
103,left,0.5307762840002397,0.0183,1,24,120,24,120,240,0.0,142,1,0.0223
104,right,0.546868447000179,0.0096,7,24,120,24,120,240,0.0,142,1,0.0384
105,right,0.6222821500005011,0.0096,4,24,120,24,120,240,0.0,142,1,0.0212
106,left,0.8636484050002764,0.035,2,24,120,24,120,240,0.0,142,2,0.052
107,right,0.6060546010003236,0.005,5,24,120,24,120,240,0.0,142,1,0.0135
108,right,1.3348057670000344,0.005,6,24,120,24,120,240,0.0,142,1,0.0164
109,right,0.6182894710004803,0.005,4,24,120,24,120,240,0.0,142,1,0.011
110,left,0.5226449330002652,0.035,5,24,120,24,120,240,0.0,142,2,0.0942
111,right,0.45984409999982745,0.0183,6,24,120,24,120,240,0.0,142,1,0.06
112,right,0.4847854660001758,0.035,2,24,120,24,120,240,0.0,142,1,0.052
113,left,0.8681707539999479,0.035,1,24,120,24,120,240,0.0,142,2,0.0427
114,left,0.6971641330001148,0.005,6,24,120,24,120,240,0.0,142,2,0.0164
115,left,0.6760766440002044,0.0183,5,24,120,24,120,240,0.0,142,1,0.0493
116,left,0.8683006880000903,0.0183,1,24,120,24,120,240,0.0,142,2,0.0223
117,right,0.7434096769998177,0.005,7,24,120,24,120,240,0.0,142,1,0.02
118,right,0.48507394100033707,0.005,1,24,120,24,120,240,0.0,142,1,0.0061
119,right,0.5966970860004039,0.0096,1,24,120,24,120,240,0.0,142,2,0.0117
120,right,0.5265088880000803,0.0096,3,24,120,24,120,240,0.0,142,2,0.0174
121,right,0.6225464280000779,0.0096,4,24,120,24,120,240,0.0,142,1,0.0212
122,right,0.7142178260000946,0.0096,5,24,120,24,120,240,0.0,142,2,0.0258
123,left,0.484745268000097,0.035,3,24,120,24,120,240,0.0,142,2,0.0634
124,right,0.5557405780000408,0.035,6,24,120,24,120,240,0.0,142,1,0.1148
125,right,0.9595233740001277,0.0096,2,24,120,24,120,240,0.0,142,2,0.0143
126,right,0.4442130460001863,0.0183,6,24,120,24,120,240,0.0,142,1,0.06
127,right,0.6230937300001642,0.0183,3,24,120,24,120,240,0.0,142,1,0.0331
128,left,0.6267917170002875,0.005,2,24,120,24,120,240,0.0,142,2,0.0074
129,right,0.5180119589999777,0.005,3,24,120,24,120,240,0.0,142,1,0.0091
130,right,0.417430344999957,0.0096,1,24,120,24,120,240,0.0,142,1,0.0117
131,right,0.44229794300008507,0.005,4,24,120,24,120,240,0.0,142,1,0.011
132,right,0.5720954079997682,0.035,5,24,120,24,120,240,0.0,142,1,0.0942
133,left,0.6135754860006273,0.0183,7,24,120,24,120,240,0.0,142,2,0.0732
134,left,0.534576030000153,0.035,7,24,120,24,120,240,0.0,142,2,0.14
135,right,2.6010335970004235,0.0183,2,24,120,24,120,240,0.0,142,1,0.0272
136,right,0.41777231600008236,0.0096,6,24,120,24,120,240,0.0,142,1,0.0315
137,right,0.5356083660003605,0.035,1,24,120,24,120,240,0.0,142,1,0.0427
138,left,0.738991846999852,0.005,6,24,120,24,120,240,0.0,142,1,0.0164
139,right,0.9728537630003302,0.0096,3,24,120,24,120,240,0.0,142,1,0.0174
140,right,2.084343049999916,0.035,5,24,120,24,120,240,0.0,142,2,0.0942
141,right,0.6471411160000571,0.005,2,24,120,24,120,240,0.0,142,1,0.0074
142,right,0.5014301200003501,0.005,5,24,120,24,120,240,0.0,142,1,0.0135
143,left,0.47679853800036653,0.0183,4,24,120,24,120,240,0.0,142,2,0.0404
144,right,0.4847939020000922,0.0096,2,24,120,24,120,240,0.0,142,1,0.0143
145,right,1.2592987170000924,0.005,3,24,120,24,120,240,0.0,142,2,0.0091
146,left,0.5549195040002814,0.0096,4,24,120,24,120,240,0.0,142,2,0.0212
147,left,0.7928255980000358,0.0183,5,24,120,24,120,240,0.0,142,2,0.0493
148,right,0.5632982320003066,0.035,4,24,120,24,120,240,0.0,142,1,0.0773
149,left,0.5933596660001967,0.005,7,24,120,24,120,240,0.0,142,2,0.02
150,left,1.1351090759999352,0.0183,2,24,120,24,120,240,0.0,142,2,0.0272
151,left,0.5313652480003839,0.0183,6,24,120,24,120,240,0.0,142,2,0.06
152,right,0.4929063910003606,0.035,3,24,120,24,120,240,0.0,142,1,0.0634
153,right,0.5264034739998351,0.035,2,24,120,24,120,240,0.0,142,1,0.052
154,left,0.5482088070002646,0.0183,3,24,120,24,120,240,0.0,142,2,0.0331
155,left,0.8479567340000358,0.035,4,24,120,24,120,240,0.0,142,2,0.0773
156,right,0.5230078859999594,0.035,7,24,120,24,120,240,0.0,142,1,0.14
157,left,0.7592198480001571,0.0183,1,24,120,24,120,240,0.0,142,1,0.0223
158,left,0.45853670000042257,0.005,5,24,120,24,120,240,0.0,142,2,0.0135
159,left,1.5802533380001478,0.005,1,24,120,24,120,240,0.0,142,2,0.0061
160,right,0.5100255659999675,0.0183,7,24,120,24,120,240,0.0,142,1,0.0732
161,right,0.5309149240001716,0.0183,4,24,120,24,120,240,0.0,142,1,0.0404
162,left,0.2440937810001742,0.035,6,24,120,24,120,240,0.0,142,2,0.1148
163,right,0.4428562680000141,0.0096,5,24,120,24,120,240,0.0,142,1,0.0258
164,right,0.5181410160002997,0.005,4,24,120,24,120,240,0.0,142,2,0.011
165,right,0.634765206999873,0.035,2,24,120,24,120,240,0.0,142,2,0.052
166,right,0.45967298900040987,0.0096,7,24,120,24,120,240,0.0,142,1,0.0384
167,left,0.4521810850001202,0.0096,7,24,120,24,120,240,0.0,142,2,0.0384
168,left,0.5175857690001067,0.0096,6,24,120,24,120,240,0.0,142,2,0.0315
169,left,0.5142082630000004,0.0183,6,24,120,24,120,240,0.0,142,2,0.06
170,left,0.4808214350000526,0.0096,5,24,120,24,120,240,0.0,142,2,0.0258
171,left,0.6383380410002246,0.0096,3,24,120,24,120,240,0.0,142,1,0.0174
172,left,0.6977433980000569,0.0096,1,24,120,24,120,240,0.0,142,2,0.0117
173,right,0.5339897490002841,0.035,2,24,120,24,120,240,0.0,142,1,0.052
174,left,0.5390883120003309,0.0183,1,24,120,24,120,240,0.0,142,2,0.0223
175,right,0.5271159310004805,0.0183,3,24,120,24,120,240,0.0,142,1,0.0331
176,right,0.6475236390001555,0.0096,1,24,120,24,120,240,0.0,142,1,0.0117
177,right,0.5634856179999588,0.0096,5,24,120,24,120,240,0.0,142,1,0.0258
178,left,0.697810446999938,0.005,7,24,120,24,120,240,0.0,142,2,0.02
179,left,0.7309773239999231,0.035,5,24,120,24,120,240,0.0,142,2,0.0942
180,right,0.4462578390002818,0.0183,6,24,120,24,120,240,0.0,142,1,0.06
181,left,0.7934979050000948,0.035,6,24,120,24,120,240,0.0,142,2,0.1148
182,left,0.6807989480003016,0.005,5,24,120,24,120,240,0.0,142,1,0.0135
183,left,0.5138950450000266,0.005,5,24,120,24,120,240,0.0,142,2,0.0135
184,left,0.5804778080000688,0.0096,4,24,120,24,120,240,0.0,142,2,0.0212
185,right,0.48484584100015127,0.0183,7,24,120,24,120,240,0.0,142,1,0.0732
186,right,0.5300725740003145,0.005,6,24,120,24,120,240,0.0,142,1,0.0164
187,left,0.5678739199997835,0.0096,2,24,120,24,120,240,0.0,142,2,0.0143
188,right,0.4882634120003786,0.0183,4,24,120,24,120,240,0.0,142,1,0.0404
189,right,1.1512531810003566,0.005,1,24,120,24,120,240,0.0,142,1,0.0061
190,left,0.5882200500000181,0.005,2,24,120,24,120,240,0.0,142,2,0.0074
191,left,0.47678570800007947,0.0096,6,24,120,24,120,240,0.0,142,2,0.0315
192,left,0.9715047320005397,0.005,3,24,120,24,120,240,0.0,142,1,0.0091
193,right,0.44253789499998675,0.035,3,24,120,24,120,240,0.0,142,1,0.0634
194,right,0.6506895680004163,0.0096,3,24,120,24,120,240,0.0,142,2,0.0174
195,left,0.6393414130002384,0.0183,2,24,120,24,120,240,0.0,142,2,0.0272
196,left,0.6473627370000941,0.035,7,24,120,24,120,240,0.0,142,2,0.14
197,right,0.8398536200002127,0.0183,1,24,120,24,120,240,0.0,142,1,0.0223
198,left,0.5932723990003979,0.005,4,24,120,24,120,240,0.0,142,2,0.011
199,right,0.7012378580002405,0.035,2,24,120,24,120,240,0.0,142,2,0.052
200,left,0.5554052749998846,0.0183,7,24,120,24,120,240,0.0,142,2,0.0732
201,left,0.7765335790004428,0.035,3,24,120,24,120,240,0.0,142,2,0.0634
202,left,0.7392901320004057,0.0183,4,24,120,24,120,240,0.0,142,2,0.0404
203,right,0.5684684130001187,0.035,6,24,120,24,120,240,0.0,142,1,0.1148
204,left,1.2347205870000835,0.0096,2,24,120,24,120,240,0.0,142,1,0.0143
205,right,0.6600904210004046,0.005,3,24,120,24,120,240,0.0,142,2,0.0091
206,right,0.4889259710002989,0.0096,6,24,120,24,120,240,0.0,142,1,0.0315
207,left,0.6558469860001424,0.005,4,24,120,24,120,240,0.0,142,1,0.011
208,right,0.5386103350001576,0.005,6,24,120,24,120,240,0.0,142,2,0.0164
209,right,0.42701131900048495,0.0096,4,24,120,24,120,240,0.0,142,1,0.0212
210,right,0.589113878000262,0.005,1,24,120,24,120,240,0.0,142,2,0.0061
211,left,0.9179462340002829,0.0183,3,24,120,24,120,240,0.0,142,2,0.0331
212,right,0.4941199210002196,0.035,1,24,120,24,120,240,0.0,142,2,0.0427
213,left,0.48875463100011984,0.0183,5,24,120,24,120,240,0.0,142,2,0.0493
214,right,0.5185647740004242,0.0183,5,24,120,24,120,240,0.0,142,1,0.0493
215,left,0.4554006289999961,0.0096,7,24,120,24,120,240,0.0,142,2,0.0384
216,right,0.46872234400007073,0.035,4,24,120,24,120,240,0.0,142,1,0.0773
217,left,0.500849695999932,0.035,4,24,120,24,120,240,0.0,142,2,0.0773
218,left,0.5811901670003863,0.005,2,24,120,24,120,240,0.0,142,1,0.0074
219,right,0.47688269200034483,0.035,1,24,120,24,120,240,0.0,142,1,0.0427
220,right,0.38953703000015594,0.0096,7,24,120,24,120,240,0.0,142,1,0.0384
221,right,0.42702572800044436,0.035,5,24,120,24,120,240,0.0,142,1,0.0942
222,right,0.538923347000491,0.035,7,24,120,24,120,240,0.0,142,1,0.14
223,left,0.8732092919999559,0.0183,2,24,120,24,120,240,0.0,142,1,0.0272
224,right,1.2643718270001045,0.005,7,24,120,24,120,240,0.0,142,1,0.02
