trial,response,rt,c_pedestal,condition,wave_length,fix_time,sti_time,presti_time,intersti_time,phase,n_pix,order,c_comparison
1,right,0.43504242199992404,0.0183,7,24,120,24,120,240,0.0,142,1,0.0732
2,right,0.6271483610000814,0.005,5,24,120,24,120,240,0.0,142,1,0.0135
3,right,0.5890367310000784,0.0183,3,24,120,24,120,240,0.0,142,1,0.0331
4,right,0.5473307639999803,0.0096,6,24,120,24,120,240,0.0,142,1,0.0315
5,left,1.1299273230001745,0.005,3,24,120,24,120,240,0.0,142,2,0.0091
6,left,0.5721692059998986,0.035,6,24,120,24,120,240,0.0,142,2,0.1148
7,right,0.6138748920000126,0.005,7,24,120,24,120,240,0.0,142,1,0.02
8,left,1.0226134229999388,0.005,2,24,120,24,120,240,0.0,142,2,0.0074
9,right,0.44298044200013464,0.0183,4,24,120,24,120,240,0.0,142,1,0.0404
10,right,0.48103708800022105,0.035,2,24,120,24,120,240,0.0,142,1,0.052
11,left,0.5388614280000183,0.0096,3,24,120,24,120,240,0.0,142,2,0.0174
12,right,0.5884560080000938,0.0096,2,24,120,24,120,240,0.0,142,1,0.0143
13,left,0.5929998489998525,0.0096,7,24,120,24,120,240,0.0,142,2,0.0384
14,right,0.8551484110000729,0.0096,3,24,120,24,120,240,0.0,142,1,0.0174
15,left,0.6344980720000422,0.0183,4,24,120,24,120,240,0.0,142,2,0.0404
16,left,0.5103338640001311,0.005,7,24,120,24,120,240,0.0,142,2,0.02
17,left,0.5634429580002234,0.0183,3,24,120,24,120,240,0.0,142,2,0.0331
18,right,0.6545960840001044,0.005,1,24,120,24,120,240,0.0,142,1,0.0061
19,left,0.513430198000151,0.0096,4,24,120,24,120,240,0.0,142,2,0.0212
20,left,0.8259769119999874,0.035,2,24,120,24,120,240,0.0,142,2,0.052
21,right,0.7094483079999918,0.005,3,24,120,24,120,240,0.0,142,1,0.0091
22,right,0.5763253469999654,0.035,4,24,120,24,120,240,0.0,142,1,0.0773
23,left,0.7391593699999248,0.0183,5,24,120,24,120,240,0.0,142,2,0.0493
24,left,0.8260316769999463,0.0183,1,24,120,24,120,240,0.0,142,1,0.0223
25,right,0.6271074400001453,0.0183,5,24,120,24,120,240,0.0,142,1,0.0493
26,right,2.1558971450001536,0.0096,2,24,120,24,120,240,0.0,142,2,0.0143
27,right,0.6662358380001479,0.035,3,24,120,24,120,240,0.0,142,1,0.0634
28,left,0.9170022969999536,0.0183,7,24,120,24,120,240,0.0,142,2,0.0732
29,left,1.3103275149999263,0.005,5,24,120,24,120,240,0.0,142,2,0.0135
30,left,0.5258960020000814,0.005,6,24,120,24,120,240,0.0,142,2,0.0164
31,right,0.5634249700001419,0.0183,6,24,120,24,120,240,0.0,142,1,0.06
32,left,0.693152659000134,0.035,3,24,120,24,120,240,0.0,142,2,0.0634
33,left,0.9892918160001045,0.035,5,24,120,24,120,240,0.0,142,2,0.0942
34,right,0.4856111639999199,0.005,1,24,120,24,120,240,0.0,142,2,0.0061
35,right,0.4644503209999584,0.0096,7,24,120,24,120,240,0.0,142,1,0.0384
36,right,0.6343274380001276,0.0183,1,24,120,24,120,240,0.0,142,2,0.0223
37,right,0.5683882989999347,0.035,7,24,120,24,120,240,0.0,142,1,0.14
38,right,0.5718716510000377,0.035,5,24,120,24,120,240,0.0,142,1,0.0942
39,left,1.0969911699999102,0.035,1,24,120,24,120,240,0.0,142,2,0.0427
40,right,0.7010115379998751,0.005,4,24,120,24,120,240,0.0,142,2,0.011
41,left,0.4931648980000318,0.035,7,24,120,24,120,240,0.0,142,2,0.14
42,left,0.5262368549999792,0.0183,6,24,120,24,120,240,0.0,142,2,0.06
43,left,0.6981516079999892,0.005,2,24,120,24,120,240,0.0,142,1,0.0074
44,left,0.5720113460001812,0.0183,2,24,120,24,120,240,0.0,142,2,0.0272
45,left,0.6060238190000291,0.0096,5,24,120,24,120,240,0.0,142,2,0.0258
46,right,0.5602830499999527,0.0183,2,24,120,24,120,240,0.0,142,1,0.0272
47,right,0.7559561380001014,0.0096,5,24,120,24,120,240,0.0,142,1,0.0258
48,left,1.0103215819999605,0.0096,1,24,120,24,120,240,0.0,142,1,0.0117
49,left,0.49695690800012926,0.035,4,24,120,24,120,240,0.0,142,2,0.0773
50,right,0.6717295460000514,0.035,1,24,120,24,120,240,0.0,142,1,0.0427
51,right,0.642946203000065,0.0096,4,24,120,24,120,240,0.0,142,1,0.0212
52,right,0.6055139580000741,0.005,6,24,120,24,120,240,0.0,142,1,0.0164
53,right,0.5167305789998409,0.035,6,24,120,24,120,240,0.0,142,1,0.1148
54,left,0.6385058509999908,0.0096,6,24,120,24,120,240,0.0,142,2,0.0315
55,right,0.9104147259999991,0.0096,1,24,120,24,120,240,0.0,142,2,0.0117
56,right,1.03372938099983,0.005,4,24,120,24,120,240,0.0,142,1,0.011
57,left,0.8766471110000111,0.0096,2,24,120,24,120,240,0.0,142,1,0.0143
58,right,0.7301483229998667,0.0096,4,24,120,24,120,240,0.0,142,1,0.0212
59,right,0.5813105960000939,0.035,3,24,120,24,120,240,0.0,142,1,0.0634
60,left,0.5680080800000269,0.0183,6,24,120,24,120,240,0.0,142,2,0.06
61,left,0.5814254550000442,0.0096,4,24,120,24,120,240,0.0,142,2,0.0212
62,left,0.6094033130000298,0.0183,4,24,120,24,120,240,0.0,142,2,0.0404
63,left,0.7260766700001113,0.005,2,24,120,24,120,240,0.0,142,2,0.0074
64,right,1.2065204900000026,0.0183,1,24,120,24,120,240,0.0,142,2,0.0223
65,right,0.905534975999899,0.005,4,24,120,24,120,240,0.0,142,2,0.011
66,left,0.5207284830000845,0.0096,6,24,120,24,120,240,0.0,142,2,0.0315
67,right,0.7518656160000319,0.0183,2,24,120,24,120,240,0.0,142,1,0.0272
68,right,0.5498698159999549,0.035,6,24,120,24,120,240,0.0,142,1,0.1148
69,left,1.1761023980000118,0.005,3,24,120,24,120,240,0.0,142,2,0.0091
70,right,0.5812033249999331,0.035,5,24,120,24,120,240,0.0,142,1,0.0942
71,right,1.4058594470000116,0.0096,1,24,120,24,120,240,0.0,142,2,0.0117
72,left,0.6727924150000035,0.0096,7,24,120,24,120,240,0.0,142,2,0.0384
73,right,0.5604925410000305,0.035,1,24,120,24,120,240,0.0,142,1,0.0427
74,left,0.6223644770000192,0.005,5,24,120,24,120,240,0.0,142,1,0.0135
75,left,0.9774788879999505,0.005,5,24,120,24,120,240,0.0,142,2,0.0135
76,right,0.5344081709999955,0.035,4,24,120,24,120,240,0.0,142,1,0.0773
77,left,0.5513411020001513,0.0096,3,24,120,24,120,240,0.0,142,2,0.0174
78,right,0.7011401140000544,0.035,1,24,120,24,120,240,0.0,142,2,0.0427
79,right,0.5801267049998842,0.0183,4,24,120,24,120,240,0.0,142,1,0.0404
80,left,1.3719148239999868,0.005,1,24,120,24,120,240,0.0,142,2,0.0061
81,right,0.5585245120000764,0.0183,6,24,120,24,120,240,0.0,142,1,0.06
82,left,1.1721518310000647,0.0183,3,24,120,24,120,240,0.0,142,2,0.0331
83,right,0.5882115770000382,0.0096,3,24,120,24,120,240,0.0,142,1,0.0174
84,right,0.5604120309999416,0.0183,5,24,120,24,120,240,0.0,142,1,0.0493
85,right,0.49652627799991933,0.0096,6,24,120,24,120,240,0.0,142,1,0.0315
86,right,0.7141048080000019,0.035,2,24,120,24,120,240,0.0,142,2,0.052
87,right,0.4848252340000272,0.005,7,24,120,24,120,240,0.0,142,1,0.02
88,left,0.7133003660001123,0.0096,1,24,120,24,120,240,0.0,142,1,0.0117
89,left,0.5795543120000275,0.035,5,24,120,24,120,240,0.0,142,2,0.0942
90,left,0.6892549649999182,0.005,6,24,120,24,120,240,0.0,142,2,0.0164
91,right,0.47754362099999526,0.035,7,24,120,24,120,240,0.0,142,1,0.14
92,right,0.7676405509998858,0.035,2,24,120,24,120,240,0.0,142,1,0.052
93,right,0.49348488700002235,0.0096,5,24,120,24,120,240,0.0,142,1,0.0258
94,left,0.572316962000059,0.035,4,24,120,24,120,240,0.0,142,2,0.0773
95,left,0.7054993750000449,0.035,3,24,120,24,120,240,0.0,142,2,0.0634
96,right,0.697225324999863,0.005,3,24,120,24,120,240,0.0,142,1,0.0091
97,right,0.7553453059999811,0.0183,1,24,120,24,120,240,0.0,142,1,0.0223
98,right,0.6514767370001664,0.0183,3,24,120,24,120,240,0.0,142,1,0.0331
99,left,0.5674084630002199,0.035,6,24,120,24,120,240,0.0,142,2,0.1148
100,left,0.5600087729997085,0.0096,5,24,120,24,120,240,0.0,142,2,0.0258
101,left,0.4595255560000169,0.0183,2,24,120,24,120,240,0.0,142,2,0.0272
102,left,0.5846353670001463,0.005,7,24,120,24,120,240,0.0,142,2,0.02
103,left,2.5100997659999393,0.005,1,24,120,24,120,240,0.0,142,1,0.0061
104,right,0.43563093699981437,0.0096,7,24,120,24,120,240,0.0,142,1,0.0384
105,left,0.6673962540000957,0.035,7,24,120,24,120,240,0.0,142,2,0.14
106,right,0.47312489000000824,0.0183,7,24,120,24,120,240,0.0,142,1,0.0732
107,left,0.5098270779997165,0.0183,7,24,120,24,120,240,0.0,142,2,0.0732
108,left,0.5428180740002517,0.0183,5,24,120,24,120,240,0.0,142,2,0.0493
109,left,0.8016919789999974,0.005,6,24,120,24,120,240,0.0,142,1,0.0164
110,right,0.6894428640000569,0.005,4,24,120,24,120,240,0.0,142,1,0.011
111,right,1.0563103140000294,0.005,2,24,120,24,120,240,0.0,142,1,0.0074
112,right,0.5223434330002874,0.0096,2,24,120,24,120,240,0.0,142,2,0.0143
113,right,0.48432823400003144,0.035,3,24,120,24,120,240,0.0,142,1,0.0634
114,left,2.8687395869999364,0.005,1,24,120,24,120,240,0.0,142,2,0.0061
115,left,0.8186319979997734,0.0096,1,24,120,24,120,240,0.0,142,2,0.0117
116,right,0.4677545160000136,0.0183,1,24,120,24,120,240,0.0,142,1,0.0223
117,right,0.4790725250002197,0.0183,5,24,120,24,120,240,0.0,142,1,0.0493
118,right,0.6388036729997566,0.005,6,24,120,24,120,240,0.0,142,1,0.0164
119,left,1.0602895130002707,0.005,3,24,120,24,120,240,0.0,142,2,0.0091
120,right,0.4594599350000408,0.035,7,24,120,24,120,240,0.0,142,1,0.14
121,left,0.7020426719998341,0.0183,6,24,120,24,120,240,0.0,142,2,0.06
122,left,0.763847688999931,0.005,2,24,120,24,120,240,0.0,142,2,0.0074
123,right,0.5436077990000285,0.0096,6,24,120,24,120,240,0.0,142,1,0.0315
124,left,0.8017951679996713,0.035,2,24,120,24,120,240,0.0,142,2,0.052
125,right,0.4762608889998319,0.0183,7,24,120,24,120,240,0.0,142,1,0.0732
126,left,1.583563889000061,0.0183,2,24,120,24,120,240,0.0,142,2,0.0272
127,right,0.4387794249998933,0.0183,3,24,120,24,120,240,0.0,142,1,0.0331
128,left,0.43141561000015827,0.0096,6,24,120,24,120,240,0.0,142,2,0.0315
129,left,0.59647195499997,0.005,7,24,120,24,120,240,0.0,142,2,0.02
130,left,0.7472597409998798,0.0183,5,24,120,24,120,240,0.0,142,2,0.0493
131,right,0.5514195759999438,0.005,5,24,120,24,120,240,0.0,142,1,0.0135
132,right,0.46376793800004634,0.035,2,24,120,24,120,240,0.0,142,1,0.052
133,left,0.5230360399998517,0.005,5,24,120,24,120,240,0.0,142,2,0.0135
134,left,0.77621308699986,0.005,3,24,120,24,120,240,0.0,142,1,0.0091
135,right,1.52052451700024,0.005,7,24,120,24,120,240,0.0,142,1,0.02
136,left,1.2182703270002548,0.035,5,24,120,24,120,240,0.0,142,2,0.0942
137,left,0.4518406629997571,0.035,6,24,120,24,120,240,0.0,142,2,0.1148
138,right,0.4641670650000833,0.0096,7,24,120,24,120,240,0.0,142,1,0.0384
139,left,0.48073137500000485,0.005,4,24,120,24,120,240,0.0,142,2,0.011
140,left,0.5471144820000973,0.0096,5,24,120,24,120,240,0.0,142,2,0.0258
141,left,1.134504323000101,0.005,1,24,120,24,120,240,0.0,142,1,0.0061
142,right,0.6433729620000577,0.005,4,24,120,24,120,240,0.0,142,1,0.011
143,right,0.647250743000086,0.035,5,24,120,24,120,240,0.0,142,1,0.0942
144,left,0.5469658460003757,0.0096,7,24,120,24,120,240,0.0,142,2,0.0384
145,right,0.6136122850000447,0.0183,6,24,120,24,120,240,0.0,142,1,0.06
146,left,0.4434287050000876,0.0096,3,24,120,24,120,240,0.0,142,1,0.0174
147,left,0.9479139990000931,0.0183,4,24,120,24,120,240,0.0,142,2,0.0404
148,left,0.8766438939999261,0.035,3,24,120,24,120,240,0.0,142,2,0.0634
149,left,0.7219131210001706,0.035,7,24,120,24,120,240,0.0,142,2,0.14
150,left,0.5435704369999712,0.0183,7,24,120,24,120,240,0.0,142,2,0.0732
151,left,1.2309993460000896,0.035,1,24,120,24,120,240,0.0,142,2,0.0427
152,left,0.8012411299998803,0.0183,3,24,120,24,120,240,0.0,142,2,0.0331
153,left,1.08847112799981,0.0096,2,24,120,24,120,240,0.0,142,2,0.0143
154,right,0.5598351490000368,0.0183,2,24,120,24,120,240,0.0,142,1,0.0272
155,right,0.4468975689999297,0.0183,4,24,120,24,120,240,0.0,142,1,0.0404
156,right,0.5688393729999461,0.0096,2,24,120,24,120,240,0.0,142,1,0.0143
157,right,0.4226012929996159,0.035,4,24,120,24,120,240,0.0,142,1,0.0773
158,left,0.6596875190000446,0.0183,1,24,120,24,120,240,0.0,142,2,0.0223
159,left,0.6170612980001806,0.005,6,24,120,24,120,240,0.0,142,2,0.0164
160,left,0.4930452599999171,0.035,4,24,120,24,120,240,0.0,142,2,0.0773
161,right,0.6423758600001293,0.0096,5,24,120,24,120,240,0.0,142,1,0.0258
162,left,0.5680794319998768,0.0096,4,24,120,24,120,240,0.0,142,2,0.0212
163,left,0.6479036819998782,0.0096,3,24,120,24,120,240,0.0,142,2,0.0174
164,right,0.5670940539996536,0.035,1,24,120,24,120,240,0.0,142,1,0.0427
165,right,0.45980831399970157,0.035,6,24,120,24,120,240,0.0,142,1,0.1148
166,left,0.619242587999679,0.0096,1,24,120,24,120,240,0.0,142,1,0.0117
167,right,0.5563134649999029,0.0096,4,24,120,24,120,240,0.0,142,1,0.0212
168,right,0.5507872420000695,0.005,2,24,120,24,120,240,0.0,142,1,0.0074
169,right,0.5725016120002238,0.005,3,24,120,24,120,240,0.0,142,2,0.0091
170,right,0.8059553849996064,0.005,5,24,120,24,120,240,0.0,142,1,0.0135
171,right,0.6412153180001496,0.005,4,24,120,24,120,240,0.0,142,1,0.011
172,left,0.4766476870001952,0.0183,7,24,120,24,120,240,0.0,142,2,0.0732
173,right,0.6265996279996671,0.005,4,24,120,24,120,240,0.0,142,2,0.011
174,left,0.6097731330003171,0.035,3,24,120,24,120,240,0.0,142,2,0.0634
175,left,0.5056198979998499,0.0183,5,24,120,24,120,240,0.0,142,2,0.0493
176,left,0.5299802700003511,0.0183,6,24,120,24,120,240,0.0,142,2,0.06
177,left,0.5137158449999788,0.005,7,24,120,24,120,240,0.0,142,2,0.02
178,right,0.5300975719999315,0.0183,2,24,120,24,120,240,0.0,142,1,0.0272
179,left,0.5812038470000971,0.005,2,24,120,24,120,240,0.0,142,2,0.0074
180,left,0.7978579129996888,0.0096,2,24,120,24,120,240,0.0,142,1,0.0143
181,left,0.6174329310003941,0.035,6,24,120,24,120,240,0.0,142,2,0.1148
182,left,0.6257685889997902,0.0183,2,24,120,24,120,240,0.0,142,2,0.0272
183,right,0.5016783749999831,0.0183,6,24,120,24,120,240,0.0,142,1,0.06
184,right,2.9183529069998713,0.0183,4,24,120,24,120,240,0.0,142,1,0.0404
185,right,1.1393929740004296,0.005,1,24,120,24,120,240,0.0,142,2,0.0061
186,right,0.48132795500009706,0.005,7,24,120,24,120,240,0.0,142,1,0.02
187,left,0.8690102090001801,0.0096,2,24,120,24,120,240,0.0,142,2,0.0143
188,left,0.5729101189997436,0.0096,4,24,120,24,120,240,0.0,142,2,0.0212
189,right,0.48420727500001703,0.035,1,24,120,24,120,240,0.0,142,2,0.0427
190,right,0.4096991080002681,0.0096,6,24,120,24,120,240,0.0,142,1,0.0315
191,right,1.038514379000162,0.005,3,24,120,24,120,240,0.0,142,1,0.0091
192,left,0.9429851950001193,0.005,1,24,120,24,120,240,0.0,142,1,0.0061
193,right,0.6767971320002744,0.005,2,24,120,24,120,240,0.0,142,1,0.0074
194,right,0.46774440000012873,0.035,4,24,120,24,120,240,0.0,142,1,0.0773
195,right,1.1061042650001127,0.0096,3,24,120,24,120,240,0.0,142,2,0.0174
196,right,0.5674444940002559,0.005,6,24,120,24,120,240,0.0,142,1,0.0164
197,left,0.5270071669999652,0.035,4,24,120,24,120,240,0.0,142,2,0.0773
198,right,0.6139559700002337,0.0096,4,24,120,24,120,240,0.0,142,1,0.0212
199,right,0.5099104339999485,0.0183,3,24,120,24,120,240,0.0,142,1,0.0331
200,right,0.87670854699968,0.0183,3,24,120,24,120,240,0.0,142,2,0.0331
201,right,0.6934124130000328,0.0096,3,24,120,24,120,240,0.0,142,1,0.0174
202,left,1.3761190419998002,0.035,5,24,120,24,120,240,0.0,142,2,0.0942
203,left,0.6717980699997952,0.005,5,24,120,24,120,240,0.0,142,2,0.0135
204,left,0.57237482000005,0.0096,5,24,120,24,120,240,0.0,142,2,0.0258
205,left,1.0305392190000475,0.0096,1,24,120,24,120,240,0.0,142,2,0.0117
206,left,0.685078344999738,0.0096,6,24,120,24,120,240,0.0,142,2,0.0315
207,right,0.4771322079998299,0.035,3,24,120,24,120,240,0.0,142,1,0.0634
208,left,0.44405919299993,0.035,7,24,120,24,120,240,0.0,142,2,0.14
209,left,0.9310804560002452,0.035,2,24,120,24,120,240,0.0,142,2,0.052
210,left,0.8605390549998901,0.0183,1,24,120,24,120,240,0.0,142,1,0.0223
211,right,0.5554673500002991,0.035,7,24,120,24,120,240,0.0,142,1,0.14
212,right,1.4679429549998986,0.035,2,24,120,24,120,240,0.0,142,1,0.052
213,right,0.5813073070000883,0.0183,5,24,120,24,120,240,0.0,142,1,0.0493
214,right,0.4389753829998426,0.0183,7,24,120,24,120,240,0.0,142,1,0.0732
215,right,0.5438565710003331,0.035,6,24,120,24,120,240,0.0,142,1,0.1148
216,right,0.5887532680001186,0.035,5,24,120,24,120,240,0.0,142,1,0.0942
217,left,0.763242708000007,0.0183,1,24,120,24,120,240,0.0,142,2,0.0223
218,left,0.5471682610002517,0.0096,7,24,120,24,120,240,0.0,142,2,0.0384
219,left,0.7639937900000859,0.0096,1,24,120,24,120,240,0.0,142,1,0.0117
220,left,0.5646568179997757,0.0183,4,24,120,24,120,240,0.0,142,2,0.0404
221,right,0.5143893420001859,0.0096,5,24,120,24,120,240,0.0,142,1,0.0258
222,right,0.48401590699972985,0.035,1,24,120,24,120,240,0.0,142,1,0.0427
223,right,2.172035000999813,0.0096,7,24,120,24,120,240,0.0,142,1,0.0384
224,left,0.5306217489999199,0.005,6,24,120,24,120,240,0.0,142,2,0.0164
