trial,response,rt,c_pedestal,condition,wave_length,fix_time,sti_time,presti_time,intersti_time,phase,n_pix,order,c_comparison
1,right,0.8965544320017216,0.005,3,24,120,24,120,240,0.0,142,1,0.0091
2,left,0.47269715200127393,0.0183,6,24,120,24,120,240,0.0,142,2,0.06
3,right,0.6312800430005154,0.0096,5,24,120,24,120,240,0.0,142,1,0.0258
4,left,0.592783120000604,0.005,4,24,120,24,120,240,0.0,142,2,0.011
5,left,0.9354147010017186,0.0183,1,24,120,24,120,240,0.0,142,2,0.0223
6,right,0.6769764060009038,0.0183,2,24,120,24,120,240,0.0,142,1,0.0272
7,right,0.6437653320008394,0.035,1,24,120,24,120,240,0.0,142,1,0.0427
8,left,0.6843626030004089,0.005,3,24,120,24,120,240,0.0,142,2,0.0091
9,right,0.5931770240003971,0.0096,3,24,120,24,120,240,0.0,142,1,0.0174
10,right,0.6258930980020523,0.0183,4,24,120,24,120,240,0.0,142,1,0.0404
11,left,0.49772187900089193,0.0183,5,24,120,24,120,240,0.0,142,2,0.0493
12,right,0.5725976060002722,0.035,5,24,120,24,120,240,0.0,142,1,0.0942
13,right,0.5472126380009286,0.0183,3,24,120,24,120,240,0.0,142,1,0.0331
14,right,0.5674512720015628,0.005,2,24,120,24,120,240,0.0,142,1,0.0074
15,right,0.7057057019992499,0.0096,4,24,120,24,120,240,0.0,142,1,0.0212
16,right,0.7508728190005058,0.035,4,24,120,24,120,240,0.0,142,1,0.0773
17,left,0.6395170760006295,0.0096,3,24,120,24,120,240,0.0,142,2,0.0174
18,left,0.885508433000723,0.0096,1,24,120,24,120,240,0.0,142,2,0.0117
19,left,0.5061384600012389,0.0183,7,24,120,24,120,240,0.0,142,2,0.0732
20,right,0.5352108560000488,0.0096,7,24,120,24,120,240,0.0,142,1,0.0384
21,right,0.4933333320004749,0.0183,5,24,120,24,120,240,0.0,142,1,0.0493
22,right,0.5478377730014472,0.0183,7,24,120,24,120,240,0.0,142,1,0.0732
23,right,0.4264119860017672,0.005,7,24,120,24,120,240,0.0,142,1,0.02
24,left,0.7729769470006431,0.005,6,24,120,24,120,240,0.0,142,2,0.0164
25,left,0.5931190440005594,0.035,6,24,120,24,120,240,0.0,142,2,0.1148
26,left,0.6062103050007863,0.0183,3,24,120,24,120,240,0.0,142,2,0.0331
27,right,0.5768354840001848,0.005,5,24,120,24,120,240,0.0,142,1,0.0135
28,left,6.393271666000146,0.0183,4,24,120,24,120,240,0.0,142,2,0.0404
29,right,0.5557231490020058,0.0183,1,24,120,24,120,240,0.0,142,1,0.0223
30,right,0.46779325399984373,0.0183,6,24,120,24,120,240,0.0,142,1,0.06
31,left,0.7803116680024687,0.035,1,24,120,24,120,240,0.0,142,2,0.0427
32,right,0.5271172230004595,0.0096,2,24,120,24,120,240,0.0,142,1,0.0143
33,right,0.5062480560009135,0.035,6,24,120,24,120,240,0.0,142,1,0.1148
34,left,2.1883730580011616,0.005,1,24,120,24,120,240,0.0,142,2,0.0061
35,left,0.49771095700089063,0.035,3,24,120,24,120,240,0.0,142,2,0.0634
36,left,0.37542384500011394,0.035,4,24,120,24,120,240,0.0,142,2,0.0773
37,right,0.40166522600156895,0.035,7,24,120,24,120,240,0.0,142,1,0.14
38,right,0.5900317680006992,0.005,1,24,120,24,120,240,0.0,142,1,0.0061
39,left,0.6057034320019739,0.0096,4,24,120,24,120,240,0.0,142,2,0.0212
40,left,1.4690664200006722,0.005,2,24,120,24,120,240,0.0,142,2,0.0074
41,right,0.5523988690001715,0.035,3,24,120,24,120,240,0.0,142,1,0.0634
42,right,0.48075328599952627,0.005,4,24,120,24,120,240,0.0,142,1,0.011
43,left,0.46785329400154296,0.0096,7,24,120,24,120,240,0.0,142,2,0.0384
44,right,2.189647632001652,0.035,2,24,120,24,120,240,0.0,142,2,0.052
45,left,0.5679335060012818,0.0183,2,24,120,24,120,240,0.0,142,2,0.0272
46,left,0.4436964070009708,0.005,7,24,120,24,120,240,0.0,142,2,0.02
47,left,0.5518173979999119,0.035,7,24,120,24,120,240,0.0,142,2,0.14
48,left,0.5014714940007252,0.035,5,24,120,24,120,240,0.0,142,2,0.0942
49,right,1.8475605410021672,0.035,2,24,120,24,120,240,0.0,142,1,0.052
50,left,0.7880974990021059,0.0096,2,24,120,24,120,240,0.0,142,2,0.0143
51,right,0.6336404079993372,0.0096,1,24,120,24,120,240,0.0,142,1,0.0117
52,left,0.5431830730012734,0.0096,6,24,120,24,120,240,0.0,142,2,0.0315
53,left,0.6760355170008552,0.005,5,24,120,24,120,240,0.0,142,2,0.0135
54,right,0.5386964720019023,0.005,6,24,120,24,120,240,0.0,142,1,0.0164
55,right,0.504836072001126,0.0096,6,24,120,24,120,240,0.0,142,1,0.0315
56,left,0.5471622029999708,0.0096,5,24,120,24,120,240,0.0,142,2,0.0258
57,right,2.927362290001838,0.0183,1,24,120,24,120,240,0.0,142,1,0.0223
58,right,0.48985353000171017,0.005,5,24,120,24,120,240,0.0,142,1,0.0135
59,left,0.5721898150004563,0.0183,4,24,120,24,120,240,0.0,142,2,0.0404
60,right,0.5390862719996221,0.035,1,24,120,24,120,240,0.0,142,1,0.0427
61,left,1.0687269080008264,0.0096,2,24,120,24,120,240,0.0,142,2,0.0143
62,left,0.625620267001068,0.005,7,24,120,24,120,240,0.0,142,2,0.02
63,left,0.6181572530003905,0.0096,1,24,120,24,120,240,0.0,142,1,0.0117
64,right,0.7182932800005801,0.005,3,24,120,24,120,240,0.0,142,2,0.0091
65,right,0.48907630200119456,0.0183,5,24,120,24,120,240,0.0,142,1,0.0493
66,right,0.693094842001301,0.0096,3,24,120,24,120,240,0.0,142,1,0.0174
67,left,0.8426997940005094,0.005,5,24,120,24,120,240,0.0,142,2,0.0135
68,left,0.31005912700129556,0.0183,6,24,120,24,120,240,0.0,142,2,0.06
69,left,0.5229041880011209,0.005,6,24,120,24,120,240,0.0,142,2,0.0164
70,left,0.4929608090005786,0.035,7,24,120,24,120,240,0.0,142,2,0.14
71,left,0.42166213300151867,0.0183,7,24,120,24,120,240,0.0,142,2,0.0732
72,right,0.626358337001875,0.0183,3,24,120,24,120,240,0.0,142,1,0.0331
73,right,0.5461905070005741,0.0096,6,24,120,24,120,240,0.0,142,1,0.0315
74,right,0.418605345999822,0.0096,7,24,120,24,120,240,0.0,142,1,0.0384
75,right,0.7349032420024741,0.035,3,24,120,24,120,240,0.0,142,1,0.0634
76,right,1.121933975000502,0.005,2,24,120,24,120,240,0.0,142,1,0.0074
77,left,0.45559905000118306,0.035,5,24,120,24,120,240,0.0,142,2,0.0942
78,right,0.3840421650020289,0.005,7,24,120,24,120,240,0.0,142,1,0.02
79,left,0.5515957190000336,0.0183,1,24,120,24,120,240,0.0,142,2,0.0223
80,left,0.48794470600114437,0.035,4,24,120,24,120,240,0.0,142,2,0.0773
81,left,0.4345555530017009,0.0096,7,24,120,24,120,240,0.0,142,2,0.0384
82,left,0.41986761600128375,0.035,6,24,120,24,120,240,0.0,142,2,0.1148
83,left,0.45227838000027987,0.0096,5,24,120,24,120,240,0.0,142,2,0.0258
84,right,0.6810895489998074,0.005,4,24,120,24,120,240,0.0,142,1,0.011
85,left,1.405359997001142,0.005,4,24,120,24,120,240,0.0,142,2,0.011
86,left,0.5384363960001792,0.035,3,24,120,24,120,240,0.0,142,2,0.0634
87,left,0.5473338740011968,0.0183,2,24,120,24,120,240,0.0,142,2,0.0272
88,left,0.6022700770008669,0.035,1,24,120,24,120,240,0.0,142,2,0.0427
89,right,0.39797560599981807,0.0096,5,24,120,24,120,240,0.0,142,1,0.0258
90,left,3.627285476000907,0.005,1,24,120,24,120,240,0.0,142,1,0.0061
91,right,0.4522496230019897,0.035,4,24,120,24,120,240,0.0,142,1,0.0773
92,right,0.6442844880020857,0.005,1,24,120,24,120,240,0.0,142,2,0.0061
93,left,0.8478793720005342,0.0183,3,24,120,24,120,240,0.0,142,2,0.0331
94,right,0.601323142000183,0.035,7,24,120,24,120,240,0.0,142,1,0.14
95,right,0.4509918870007823,0.0096,4,24,120,24,120,240,0.0,142,1,0.0212
96,right,3.1732041430004756,0.035,2,24,120,24,120,240,0.0,142,2,0.052
97,left,1.0266385140021157,0.0096,2,24,120,24,120,240,0.0,142,1,0.0143
98,left,0.45127508000041416,0.0096,3,24,120,24,120,240,0.0,142,2,0.0174
99,right,0.5054549260003114,0.0183,2,24,120,24,120,240,0.0,142,1,0.0272
100,right,0.5218629770024563,0.0183,4,24,120,24,120,240,0.0,142,1,0.0404
101,right,0.4552514090009936,0.005,6,24,120,24,120,240,0.0,142,1,0.0164
102,left,0.9969013030004135,0.0183,5,24,120,24,120,240,0.0,142,2,0.0493
103,right,1.0603655080012686,0.0096,1,24,120,24,120,240,0.0,142,2,0.0117
104,right,0.9926726210014749,0.005,3,24,120,24,120,240,0.0,142,1,0.0091
105,right,0.4898324890018557,0.0183,6,24,120,24,120,240,0.0,142,1,0.06
106,right,0.5353677770017384,0.0183,7,24,120,24,120,240,0.0,142,1,0.0732
107,left,0.41814370000247436,0.0096,6,24,120,24,120,240,0.0,142,2,0.0315
108,right,0.5976344400005473,0.035,6,24,120,24,120,240,0.0,142,1,0.1148
109,right,0.47702136100087955,0.035,5,24,120,24,120,240,0.0,142,1,0.0942
110,left,0.43477823800094484,0.0096,4,24,120,24,120,240,0.0,142,2,0.0212
111,left,0.6016522700010682,0.005,2,24,120,24,120,240,0.0,142,2,0.0074
112,right,0.6623115520014835,0.035,2,24,120,24,120,240,0.0,142,1,0.052
113,right,0.7180703920021188,0.0096,2,24,120,24,120,240,0.0,142,1,0.0143
114,left,0.6831872900002054,0.0096,4,24,120,24,120,240,0.0,142,2,0.0212
115,left,1.2815294940010062,0.005,2,24,120,24,120,240,0.0,142,1,0.0074
116,right,1.6183525010001176,0.0096,5,24,120,24,120,240,0.0,142,1,0.0258
117,left,0.7310047420014598,0.005,5,24,120,24,120,240,0.0,142,2,0.0135
118,right,0.5148774970020895,0.035,3,24,120,24,120,240,0.0,142,1,0.0634
119,right,0.6098337460025505,0.0183,2,24,120,24,120,240,0.0,142,1,0.0272
120,left,0.4802258689996961,0.0183,4,24,120,24,120,240,0.0,142,2,0.0404
121,right,1.2557504350024828,0.005,2,24,120,24,120,240,0.0,142,2,0.0074
122,left,0.8886133560008602,0.0096,2,24,120,24,120,240,0.0,142,2,0.0143
123,right,0.5187072430016997,0.035,2,24,120,24,120,240,0.0,142,1,0.052
124,left,0.4810948800022743,0.035,4,24,120,24,120,240,0.0,142,2,0.0773
125,left,0.601746197002285,0.0183,2,24,120,24,120,240,0.0,142,2,0.0272
126,left,0.4433923460001097,0.0096,7,24,120,24,120,240,0.0,142,2,0.0384
127,left,0.5014679409996461,0.0096,3,24,120,24,120,240,0.0,142,2,0.0174
128,right,1.3722239650014671,0.035,1,24,120,24,120,240,0.0,142,1,0.0427
129,left,1.6223273670002527,0.005,3,24,120,24,120,240,0.0,142,2,0.0091
130,left,0.812680958000783,0.0183,1,24,120,24,120,240,0.0,142,1,0.0223
131,right,0.9928657109994674,0.035,1,24,120,24,120,240,0.0,142,2,0.0427
132,right,1.539717946001474,0.005,5,24,120,24,120,240,0.0,142,1,0.0135
133,right,0.764247338001951,0.0183,6,24,120,24,120,240,0.0,142,1,0.06
134,right,0.4644684530012455,0.035,7,24,120,24,120,240,0.0,142,1,0.14
135,right,0.5760987280009431,0.005,3,24,120,24,120,240,0.0,142,1,0.0091
136,left,0.49354530200071167,0.035,3,24,120,24,120,240,0.0,142,2,0.0634
137,right,1.1849912230009068,0.0096,1,24,120,24,120,240,0.0,142,1,0.0117
138,left,0.635269969001456,0.0183,5,24,120,24,120,240,0.0,142,2,0.0493
139,right,0.4220638050010166,0.0096,6,24,120,24,120,240,0.0,142,1,0.0315
140,left,0.5058680290021584,0.035,2,24,120,24,120,240,0.0,142,2,0.052
141,right,0.7721905500002322,0.005,4,24,120,24,120,240,0.0,142,2,0.011
142,left,0.3846247800011042,0.035,6,24,120,24,120,240,0.0,142,2,0.1148
143,right,0.45653097099966544,0.0183,4,24,120,24,120,240,0.0,142,1,0.0404
144,right,0.48478540500218514,0.0183,3,24,120,24,120,240,0.0,142,1,0.0331
145,left,0.8475279060003231,0.005,4,24,120,24,120,240,0.0,142,1,0.011
146,left,4.889613442001064,0.0183,6,24,120,24,120,240,0.0,142,2,0.06
147,right,0.5174136030018417,0.0183,7,24,120,24,120,240,0.0,142,1,0.0732
148,left,0.602197187999991,0.005,1,24,120,24,120,240,0.0,142,2,0.0061
149,left,0.4061928280007123,0.0183,7,24,120,24,120,240,0.0,142,2,0.0732
150,right,0.5939361440014181,0.035,6,24,120,24,120,240,0.0,142,1,0.1148
151,right,0.5142913270010467,0.005,7,24,120,24,120,240,0.0,142,1,0.02
152,right,0.40085605700005544,0.005,6,24,120,24,120,240,0.0,142,1,0.0164
153,right,0.43508235000081186,0.035,5,24,120,24,120,240,0.0,142,1,0.0942
154,left,0.780776899000557,0.0183,3,24,120,24,120,240,0.0,142,2,0.0331
155,right,0.6900127950011665,0.0096,3,24,120,24,120,240,0.0,142,1,0.0174
156,right,0.4345250110000052,0.0183,5,24,120,24,120,240,0.0,142,1,0.0493
157,left,0.3770867100010946,0.0096,5,24,120,24,120,240,0.0,142,2,0.0258
158,left,0.4268451570005709,0.005,7,24,120,24,120,240,0.0,142,2,0.02
159,right,0.4850040130022535,0.035,4,24,120,24,120,240,0.0,142,1,0.0773
160,left,1.410333850000825,0.0183,1,24,120,24,120,240,0.0,142,2,0.0223
161,right,0.452083529000447,0.0096,7,24,120,24,120,240,0.0,142,1,0.0384
162,left,0.5349138260007749,0.035,5,24,120,24,120,240,0.0,142,2,0.0942
163,left,0.5383906840015698,0.005,6,24,120,24,120,240,0.0,142,2,0.0164
164,left,1.1635766359995614,0.005,1,24,120,24,120,240,0.0,142,1,0.0061
165,right,0.37235851300101785,0.0096,4,24,120,24,120,240,0.0,142,1,0.0212
166,right,0.4515038480021758,0.0096,1,24,120,24,120,240,0.0,142,2,0.0117
167,left,0.593125321000116,0.0096,6,24,120,24,120,240,0.0,142,2,0.0315
168,left,0.5137876000007964,0.035,7,24,120,24,120,240,0.0,142,2,0.14
169,left,0.5851815059995715,0.0183,2,24,120,24,120,240,0.0,142,2,0.0272
170,right,0.893463710001015,0.0096,1,24,120,24,120,240,0.0,142,1,0.0117
171,right,0.5520185310015222,0.035,3,24,120,24,120,240,0.0,142,1,0.0634
172,left,0.9724016279997159,0.035,1,24,120,24,120,240,0.0,142,2,0.0427
173,left,2.431079879999743,0.005,4,24,120,24,120,240,0.0,142,1,0.011
174,left,0.47549123499993584,0.035,7,24,120,24,120,240,0.0,142,2,0.14
175,right,1.5804507570010173,0.005,1,24,120,24,120,240,0.0,142,2,0.0061
176,right,0.9217781090010249,0.035,1,24,120,24,120,240,0.0,142,1,0.0427
177,right,0.4177884750006342,0.0096,4,24,120,24,120,240,0.0,142,1,0.0212
178,right,0.460608488001526,0.0183,4,24,120,24,120,240,0.0,142,1,0.0404
179,right,0.38864254300096945,0.0096,5,24,120,24,120,240,0.0,142,1,0.0258
180,right,0.5061014010007057,0.005,6,24,120,24,120,240,0.0,142,1,0.0164
181,right,0.4959866150002199,0.035,6,24,120,24,120,240,0.0,142,1,0.1148
182,left,0.9639986740003224,0.005,3,24,120,24,120,240,0.0,142,2,0.0091
183,left,0.5897009090022038,0.005,6,24,120,24,120,240,0.0,142,2,0.0164
184,left,0.7387925020011608,0.005,5,24,120,24,120,240,0.0,142,1,0.0135
185,left,1.0342464889999974,0.0096,3,24,120,24,120,240,0.0,142,2,0.0174
186,right,0.7646845890012628,0.035,7,24,120,24,120,240,0.0,142,1,0.14
187,right,0.49811663999935263,0.0183,1,24,120,24,120,240,0.0,142,1,0.0223
188,right,0.5769181920022675,0.0183,5,24,120,24,120,240,0.0,142,1,0.0493
189,left,0.6186455340011889,0.0096,7,24,120,24,120,240,0.0,142,2,0.0384
190,left,0.5852262760017766,0.0183,4,24,120,24,120,240,0.0,142,2,0.0404
191,right,0.693604033001975,0.035,2,24,120,24,120,240,0.0,142,1,0.052
192,left,0.6173547079997661,0.035,2,24,120,24,120,240,0.0,142,2,0.052
193,left,0.4255939090016909,0.035,6,24,120,24,120,240,0.0,142,2,0.1148
194,right,0.7925122760007071,0.0183,2,24,120,24,120,240,0.0,142,1,0.0272
195,left,1.2434139750002942,0.005,3,24,120,24,120,240,0.0,142,1,0.0091
196,left,1.6721508280024864,0.005,7,24,120,24,120,240,0.0,142,2,0.02
197,left,0.4594131899993954,0.0096,2,24,120,24,120,240,0.0,142,2,0.0143
198,left,0.42716740400101116,0.0096,6,24,120,24,120,240,0.0,142,2,0.0315
199,left,0.5094017129995336,0.0183,1,24,120,24,120,240,0.0,142,2,0.0223
200,right,1.0932655330016132,0.005,2,24,120,24,120,240,0.0,142,1,0.0074
201,right,0.3590902340019966,0.0096,3,24,120,24,120,240,0.0,142,1,0.0174
202,right,0.5391152310021425,0.0183,7,24,120,24,120,240,0.0,142,1,0.0732
203,right,0.402137233002577,0.0096,6,24,120,24,120,240,0.0,142,1,0.0315
204,left,0.4473766870014515,0.0183,5,24,120,24,120,240,0.0,142,2,0.0493
205,left,0.539028668001265,0.0096,5,24,120,24,120,240,0.0,142,2,0.0258
206,right,0.47622349400080566,0.035,4,24,120,24,120,240,0.0,142,1,0.0773
207,right,0.7557310909996886,0.0096,2,24,120,24,120,240,0.0,142,1,0.0143
208,right,0.7554841600012878,0.0183,3,24,120,24,120,240,0.0,142,1,0.0331
209,left,1.0638676440012205,0.005,1,24,120,24,120,240,0.0,142,1,0.0061
210,left,0.422352719000628,0.0183,7,24,120,24,120,240,0.0,142,2,0.0732
211,left,0.639336035001179,0.035,3,24,120,24,120,240,0.0,142,2,0.0634
212,left,0.6897319010004139,0.0096,4,24,120,24,120,240,0.0,142,2,0.0212
213,right,0.43911227800163033,0.0183,6,24,120,24,120,240,0.0,142,1,0.06
214,left,1.2769884210010787,0.005,2,24,120,24,120,240,0.0,142,2,0.0074
215,right,0.7643838610001694,0.005,4,24,120,24,120,240,0.0,142,2,0.011
216,left,0.5478073540016339,0.035,5,24,120,24,120,240,0.0,142,2,0.0942
217,right,0.45918218000042543,0.005,7,24,120,24,120,240,0.0,142,1,0.02
218,right,0.5428179130012722,0.0096,7,24,120,24,120,240,0.0,142,1,0.0384
219,left,0.5520589100015059,0.0183,3,24,120,24,120,240,0.0,142,2,0.0331
220,left,0.4815167050001037,0.035,4,24,120,24,120,240,0.0,142,2,0.0773
221,left,1.78909596000085,0.005,5,24,120,24,120,240,0.0,142,2,0.0135
222,right,0.5098984020005446,0.035,5,24,120,24,120,240,0.0,142,1,0.0942
223,right,1.1511748320008337,0.0096,1,24,120,24,120,240,0.0,142,2,0.0117
224,left,0.5729605190008442,0.0183,6,24,120,24,120,240,0.0,142,2,0.06
