trial,response,rt,c_pedestal,condition,wave_length,fix_time,sti_time,presti_time,intersti_time,phase,n_pix,order,c_comparison
1,left,8.814084419999972,0.0096,3,24,120,24,120,240,0.0,142,1,0.0174
2,right,1.3977534969999397,0.0096,2,24,120,24,120,240,0.0,142,2,0.0143
3,left,2.190122929999916,0.035,7,24,120,24,120,240,0.0,142,2,0.14
4,left,14.9082963809999,0.035,3,24,120,24,120,240,0.0,142,2,0.0634
5,right,1.671609607999926,0.035,5,24,120,24,120,240,0.0,142,1,0.0942
6,right,31.01893319199985,0.005,2,24,120,24,120,240,0.0,142,2,0.0074
7,left,2.5848184669998773,0.005,1,24,120,24,120,240,0.0,142,1,0.0061
8,left,0.8262245690000327,0.035,5,24,120,24,120,240,0.0,142,2,0.0942
9,left,2.3394709560000138,0.0096,5,24,120,24,120,240,0.0,142,2,0.0258
10,left,4.814609017999828,0.035,4,24,120,24,120,240,0.0,142,2,0.0773
11,right,1.3772490029998607,0.0183,1,24,120,24,120,240,0.0,142,1,0.0223
12,right,1.5146484069998678,0.0183,7,24,120,24,120,240,0.0,142,1,0.0732
13,right,1.576742867999883,0.005,6,24,120,24,120,240,0.0,142,1,0.0164
14,left,2.0474864820000676,0.0096,4,24,120,24,120,240,0.0,142,2,0.0212
15,right,1.1564112510000086,0.0096,4,24,120,24,120,240,0.0,142,1,0.0212
16,left,1.1522725830000127,0.0183,2,24,120,24,120,240,0.0,142,2,0.0272
17,left,3.205677509999987,0.005,1,24,120,24,120,240,0.0,142,2,0.0061
18,left,1.2017046680000476,0.0183,6,24,120,24,120,240,0.0,142,2,0.06
19,left,1.7439236389998314,0.0096,6,24,120,24,120,240,0.0,142,2,0.0315
20,right,1.059378838999919,0.035,7,24,120,24,120,240,0.0,142,1,0.14
21,left,4.143755773999828,0.0096,1,24,120,24,120,240,0.0,142,1,0.0117
22,right,2.1312038789999406,0.0096,2,24,120,24,120,240,0.0,142,1,0.0143
23,right,3.83485744099994,0.005,2,24,120,24,120,240,0.0,142,1,0.0074
24,left,2.8845435869998255,0.0096,1,24,120,24,120,240,0.0,142,2,0.0117
25,left,2.5474756679998336,0.0183,2,24,120,24,120,240,0.0,142,1,0.0272
26,right,1.1641145919998053,0.035,1,24,120,24,120,240,0.0,142,1,0.0427
27,left,1.1225153109999155,0.0183,1,24,120,24,120,240,0.0,142,2,0.0223
28,left,1.800365735000014,0.005,5,24,120,24,120,240,0.0,142,1,0.0135
29,right,1.384568554999987,0.0183,3,24,120,24,120,240,0.0,142,1,0.0331
30,left,1.022169495999833,0.0183,4,24,120,24,120,240,0.0,142,2,0.0404
31,right,5.329997032999927,0.035,2,24,120,24,120,240,0.0,142,1,0.052
32,left,1.126938900000141,0.005,7,24,120,24,120,240,0.0,142,2,0.02
33,left,1.040408354999954,0.0096,7,24,120,24,120,240,0.0,142,2,0.0384
34,right,1.2482062859996859,0.035,3,24,120,24,120,240,0.0,142,1,0.0634
35,left,1.176713628999778,0.0183,3,24,120,24,120,240,0.0,142,2,0.0331
36,right,1.0597119039996414,0.0096,5,24,120,24,120,240,0.0,142,1,0.0258
37,left,1.3230153749998408,0.005,6,24,120,24,120,240,0.0,142,2,0.0164
38,left,1.2214530180001475,0.0183,5,24,120,24,120,240,0.0,142,2,0.0493
39,right,0.976958424999566,0.0096,7,24,120,24,120,240,0.0,142,1,0.0384
40,left,3.1013669400001618,0.005,3,24,120,24,120,240,0.0,142,2,0.0091
41,left,1.329858589999958,0.035,6,24,120,24,120,240,0.0,142,2,0.1148
42,right,1.4144853219997913,0.0183,4,24,120,24,120,240,0.0,142,1,0.0404
43,left,1.8502480509998804,0.035,1,24,120,24,120,240,0.0,142,2,0.0427
44,left,1.9141398280000885,0.0096,3,24,120,24,120,240,0.0,142,2,0.0174
45,right,1.9395838459997776,0.0183,6,24,120,24,120,240,0.0,142,1,0.06
46,right,1.2686678739999024,0.005,7,24,120,24,120,240,0.0,142,1,0.02
47,left,6.764154219999682,0.035,2,24,120,24,120,240,0.0,142,2,0.052
48,left,2.9109341900000345,0.005,4,24,120,24,120,240,0.0,142,2,0.011
49,right,1.360205342999734,0.0183,5,24,120,24,120,240,0.0,142,1,0.0493
50,right,1.1592187769995235,0.0096,6,24,120,24,120,240,0.0,142,1,0.0315
51,right,1.3053757269997277,0.035,4,24,120,24,120,240,0.0,142,1,0.0773
52,left,1.3129076640000221,0.0183,7,24,120,24,120,240,0.0,142,2,0.0732
53,right,3.0549945600002957,0.005,4,24,120,24,120,240,0.0,142,1,0.011
54,left,2.6235683429997607,0.005,3,24,120,24,120,240,0.0,142,1,0.0091
55,right,1.109997026999963,0.035,6,24,120,24,120,240,0.0,142,1,0.1148
56,left,2.3855658509999103,0.005,5,24,120,24,120,240,0.0,142,2,0.0135
57,left,2.07255386599968,0.0096,1,24,120,24,120,240,0.0,142,1,0.0117
58,left,2.2631794030000947,0.005,6,24,120,24,120,240,0.0,142,2,0.0164
59,left,1.1270597659997748,0.035,5,24,120,24,120,240,0.0,142,2,0.0942
60,right,1.4094295059996966,0.005,6,24,120,24,120,240,0.0,142,1,0.0164
61,left,1.6967192579998027,0.005,4,24,120,24,120,240,0.0,142,1,0.011
62,left,1.9141319329999078,0.0183,3,24,120,24,120,240,0.0,142,2,0.0331
63,right,1.0505309890002081,0.0096,3,24,120,24,120,240,0.0,142,1,0.0174
64,left,1.5273452699996142,0.0096,5,24,120,24,120,240,0.0,142,2,0.0258
65,right,1.2472204999996848,0.035,3,24,120,24,120,240,0.0,142,1,0.0634
66,left,3.6466547160000573,0.0096,2,24,120,24,120,240,0.0,142,1,0.0143
67,right,0.8789892540000892,0.035,4,24,120,24,120,240,0.0,142,1,0.0773
68,left,2.42186750399992,0.005,2,24,120,24,120,240,0.0,142,1,0.0074
69,right,2.2145452349998322,0.005,5,24,120,24,120,240,0.0,142,1,0.0135
70,left,1.2391368189998957,0.035,6,24,120,24,120,240,0.0,142,2,0.1148
71,left,1.2330122529999699,0.005,7,24,120,24,120,240,0.0,142,2,0.02
72,left,6.013765440999805,0.0096,2,24,120,24,120,240,0.0,142,2,0.0143
73,right,0.8020560849997764,0.035,5,24,120,24,120,240,0.0,142,1,0.0942
74,left,2.235502967000002,0.005,4,24,120,24,120,240,0.0,142,2,0.011
75,right,2.3182652719999624,0.0096,1,24,120,24,120,240,0.0,142,2,0.0117
76,right,1.0345367869997517,0.0096,7,24,120,24,120,240,0.0,142,1,0.0384
77,left,1.0215761609999845,0.0183,7,24,120,24,120,240,0.0,142,2,0.0732
78,left,2.9057764199999383,0.005,1,24,120,24,120,240,0.0,142,2,0.0061
79,right,2.3765795829997387,0.005,1,24,120,24,120,240,0.0,142,1,0.0061
80,right,1.5098038989997349,0.0096,6,24,120,24,120,240,0.0,142,1,0.0315
81,right,3.702127440999675,0.035,1,24,120,24,120,240,0.0,142,1,0.0427
82,right,1.1183552260001761,0.005,7,24,120,24,120,240,0.0,142,1,0.02
83,left,1.467510466000249,0.0183,5,24,120,24,120,240,0.0,142,2,0.0493
84,right,2.055053838000049,0.0096,4,24,120,24,120,240,0.0,142,1,0.0212
85,left,7.9387406620001,0.0183,1,24,120,24,120,240,0.0,142,1,0.0223
86,left,15.18073385799994,0.035,2,24,120,24,120,240,0.0,142,1,0.052
87,left,1.0971450089998598,0.0183,6,24,120,24,120,240,0.0,142,2,0.06
88,left,1.1267078650000713,0.035,3,24,120,24,120,240,0.0,142,2,0.0634
89,right,0.8264050880000013,0.0183,7,24,120,24,120,240,0.0,142,1,0.0732
90,left,0.8228524090002338,0.035,2,24,120,24,120,240,0.0,142,2,0.052
91,right,1.0638868220000859,0.0183,6,24,120,24,120,240,0.0,142,1,0.06
92,left,1.0850131169997894,0.0096,6,24,120,24,120,240,0.0,142,2,0.0315
93,left,1.1270970319999378,0.035,7,24,120,24,120,240,0.0,142,2,0.14
94,left,2.3102719779997187,0.005,3,24,120,24,120,240,0.0,142,1,0.0091
95,right,1.0728688540000348,0.0183,4,24,120,24,120,240,0.0,142,1,0.0404
96,left,1.134380905000171,0.0183,4,24,120,24,120,240,0.0,142,2,0.0404
97,right,1.538410144999716,0.0096,5,24,120,24,120,240,0.0,142,1,0.0258
98,right,1.3761997709996194,0.035,6,24,120,24,120,240,0.0,142,1,0.1148
99,left,1.8548981880001065,0.035,4,24,120,24,120,240,0.0,142,2,0.0773
100,right,1.189386813000283,0.0183,5,24,120,24,120,240,0.0,142,1,0.0493
101,left,1.718253402000073,0.0096,7,24,120,24,120,240,0.0,142,2,0.0384
102,right,1.9221908890001487,0.035,7,24,120,24,120,240,0.0,142,1,0.14
103,left,2.2718319150001207,0.005,3,24,120,24,120,240,0.0,142,2,0.0091
104,left,2.0553911760000574,0.0096,4,24,120,24,120,240,0.0,142,2,0.0212
105,left,5.98112794199983,0.035,1,24,120,24,120,240,0.0,142,2,0.0427
106,left,1.1768376529996658,0.0183,2,24,120,24,120,240,0.0,142,2,0.0272
107,left,1.2772286329998224,0.0183,1,24,120,24,120,240,0.0,142,2,0.0223
108,right,1.4046843019998505,0.005,5,24,120,24,120,240,0.0,142,2,0.0135
109,right,2.7725053540000317,0.0183,2,24,120,24,120,240,0.0,142,1,0.0272
110,left,1.443604798000024,0.005,2,24,120,24,120,240,0.0,142,2,0.0074
111,right,1.0518758449995858,0.0183,3,24,120,24,120,240,0.0,142,1,0.0331
112,left,2.0683094399998936,0.0096,3,24,120,24,120,240,0.0,142,2,0.0174
113,right,1.322212091999745,0.035,7,24,120,24,120,240,0.0,142,1,0.14
114,right,2.2100977789998524,0.035,4,24,120,24,120,240,0.0,142,1,0.0773
115,left,1.5641492480001489,0.005,5,24,120,24,120,240,0.0,142,2,0.0135
116,left,1.043345661000103,0.035,4,24,120,24,120,240,0.0,142,2,0.0773
117,left,1.6837586529998134,0.005,5,24,120,24,120,240,0.0,142,1,0.0135
118,right,1.093540368999811,0.0096,6,24,120,24,120,240,0.0,142,1,0.0315
119,left,1.1441453919999276,0.035,7,24,120,24,120,240,0.0,142,2,0.14
120,right,1.393650837999985,0.0096,4,24,120,24,120,240,0.0,142,1,0.0212
121,left,1.3852243759995417,0.005,3,24,120,24,120,240,0.0,142,1,0.0091
122,left,1.6141152479997345,0.0096,4,24,120,24,120,240,0.0,142,2,0.0212
123,right,1.1882751709997592,0.035,2,24,120,24,120,240,0.0,142,1,0.052
124,right,1.1470588079998834,0.0183,3,24,120,24,120,240,0.0,142,1,0.0331
125,left,1.7973707279995779,0.005,3,24,120,24,120,240,0.0,142,2,0.0091
126,left,1.0559260560000894,0.0183,7,24,120,24,120,240,0.0,142,2,0.0732
127,left,5.959313399999928,0.0183,2,24,120,24,120,240,0.0,142,1,0.0272
128,left,1.7393354960001943,0.005,6,24,120,24,120,240,0.0,142,1,0.0164
129,right,0.9477203649996682,0.0096,3,24,120,24,120,240,0.0,142,1,0.0174
130,left,1.793683046999604,0.0096,1,24,120,24,120,240,0.0,142,2,0.0117
131,right,1.1183393859998887,0.005,7,24,120,24,120,240,0.0,142,1,0.02
132,right,1.8434736319998137,0.035,1,24,120,24,120,240,0.0,142,1,0.0427
133,left,1.7599533999998584,0.0096,7,24,120,24,120,240,0.0,142,2,0.0384
134,left,1.209563929999831,0.005,6,24,120,24,120,240,0.0,142,2,0.0164
135,left,1.3352900200000022,0.035,2,24,120,24,120,240,0.0,142,2,0.052
136,left,6.76472033899995,0.0183,4,24,120,24,120,240,0.0,142,1,0.0404
137,left,0.9720095439995475,0.0183,6,24,120,24,120,240,0.0,142,2,0.06
138,right,0.8556502539997837,0.035,6,24,120,24,120,240,0.0,142,1,0.1148
139,left,1.4262532430000192,0.005,1,24,120,24,120,240,0.0,142,2,0.0061
140,right,1.9758313549998547,0.005,2,24,120,24,120,240,0.0,142,2,0.0074
141,left,1.4094584199999645,0.0096,2,24,120,24,120,240,0.0,142,2,0.0143
142,left,1.1635292549997303,0.035,3,24,120,24,120,240,0.0,142,2,0.0634
143,right,1.0638767689999895,0.035,3,24,120,24,120,240,0.0,142,1,0.0634
144,left,1.8845395759997245,0.0096,2,24,120,24,120,240,0.0,142,1,0.0143
145,left,1.1769873779996942,0.035,6,24,120,24,120,240,0.0,142,2,0.1148
146,right,1.3225757789998625,0.005,2,24,120,24,120,240,0.0,142,1,0.0074
147,left,1.4093410769999082,0.005,4,24,120,24,120,240,0.0,142,1,0.011
148,left,1.118607349000058,0.0183,4,24,120,24,120,240,0.0,142,2,0.0404
149,right,2.968525660000296,0.005,4,24,120,24,120,240,0.0,142,2,0.011
150,left,1.084500689999686,0.035,5,24,120,24,120,240,0.0,142,2,0.0942
151,left,1.2687860989997262,0.0183,3,24,120,24,120,240,0.0,142,2,0.0331
152,right,1.2228137389995481,0.0183,5,24,120,24,120,240,0.0,142,1,0.0493
153,right,1.3977172009997503,0.0183,7,24,120,24,120,240,0.0,142,1,0.0732
154,left,1.2313044250001894,0.035,1,24,120,24,120,240,0.0,142,2,0.0427
155,left,1.134577863000004,0.0183,1,24,120,24,120,240,0.0,142,1,0.0223
156,right,0.850341115999754,0.035,5,24,120,24,120,240,0.0,142,1,0.0942
157,left,1.0559496160001345,0.0096,5,24,120,24,120,240,0.0,142,2,0.0258
158,left,1.5971773419998954,0.0096,3,24,120,24,120,240,0.0,142,2,0.0174
159,left,1.1187201280001773,0.0096,6,24,120,24,120,240,0.0,142,2,0.0315
160,right,1.092706279999902,0.0096,5,24,120,24,120,240,0.0,142,1,0.0258
161,left,2.0511525500003245,0.0096,1,24,120,24,120,240,0.0,142,1,0.0117
162,left,1.2145746779999627,0.0183,5,24,120,24,120,240,0.0,142,2,0.0493
163,left,2.896909715999982,0.005,1,24,120,24,120,240,0.0,142,1,0.0061
164,right,1.5050824649999868,0.0096,7,24,120,24,120,240,0.0,142,1,0.0384
165,left,2.522875482000245,0.0183,1,24,120,24,120,240,0.0,142,2,0.0223
166,right,1.360201823000125,0.0183,6,24,120,24,120,240,0.0,142,1,0.06
167,left,1.9667650879998746,0.005,7,24,120,24,120,240,0.0,142,2,0.02
168,left,19.78956104399981,0.0183,2,24,120,24,120,240,0.0,142,2,0.0272
169,right,1.559543572999928,0.0096,3,24,120,24,120,240,0.0,142,1,0.0174
170,left,2.009978314999671,0.005,3,24,120,24,120,240,0.0,142,2,0.0091
171,right,0.9684309810002105,0.035,4,24,120,24,120,240,0.0,142,1,0.0773
172,left,1.2895614819997263,0.035,3,24,120,24,120,240,0.0,142,2,0.0634
173,right,2.7645163049999155,0.035,2,24,120,24,120,240,0.0,142,2,0.052
174,left,2.1722782330000427,0.005,1,24,120,24,120,240,0.0,142,1,0.0061
175,left,1.8346695449997696,0.005,2,24,120,24,120,240,0.0,142,2,0.0074
176,left,1.034610984999972,0.0096,7,24,120,24,120,240,0.0,142,2,0.0384
177,right,1.5760913300002812,0.005,5,24,120,24,120,240,0.0,142,2,0.0135
178,right,0.9266602330001206,0.035,5,24,120,24,120,240,0.0,142,1,0.0942
179,left,1.1777083429999493,0.0096,2,24,120,24,120,240,0.0,142,1,0.0143
180,right,2.760488670999848,0.0183,2,24,120,24,120,240,0.0,142,1,0.0272
181,left,1.2056347019999976,0.0096,4,24,120,24,120,240,0.0,142,2,0.0212
182,right,0.8224520789997314,0.035,6,24,120,24,120,240,0.0,142,1,0.1148
183,left,1.8190970600001037,0.0096,3,24,120,24,120,240,0.0,142,2,0.0174
184,left,0.9562594499996067,0.0183,7,24,120,24,120,240,0.0,142,2,0.0732
185,left,2.1429355990001113,0.005,3,24,120,24,120,240,0.0,142,1,0.0091
186,left,1.0681841240000267,0.0183,2,24,120,24,120,240,0.0,142,2,0.0272
187,left,1.0181001149996973,0.0183,4,24,120,24,120,240,0.0,142,2,0.0404
188,right,1.9521451349999097,0.005,4,24,120,24,120,240,0.0,142,1,0.011
189,left,1.3658964819999255,0.005,6,24,120,24,120,240,0.0,142,2,0.0164
190,right,0.9270010689999708,0.0183,6,24,120,24,120,240,0.0,142,1,0.06
191,right,1.0346345430000383,0.0096,7,24,120,24,120,240,0.0,142,1,0.0384
192,right,0.884780666999859,0.0096,6,24,120,24,120,240,0.0,142,1,0.0315
193,left,1.0106122380000215,0.005,7,24,120,24,120,240,0.0,142,2,0.02
194,left,0.9519390239995573,0.0183,6,24,120,24,120,240,0.0,142,2,0.06
195,left,1.3307742209997286,0.0096,5,24,120,24,120,240,0.0,142,2,0.0258
196,left,2.6510856920001515,0.005,5,24,120,24,120,240,0.0,142,1,0.0135
197,left,2.039691907000133,0.035,1,24,120,24,120,240,0.0,142,1,0.0427
198,right,1.4301676010002211,0.005,1,24,120,24,120,240,0.0,142,2,0.0061
199,right,0.8729980650002744,0.035,3,24,120,24,120,240,0.0,142,1,0.0634
200,right,0.9058792899998025,0.0096,4,24,120,24,120,240,0.0,142,1,0.0212
201,right,0.8804645220000111,0.0183,4,24,120,24,120,240,0.0,142,1,0.0404
202,left,1.459924484999874,0.0096,1,24,120,24,120,240,0.0,142,2,0.0117
203,right,1.5262530570000763,0.005,4,24,120,24,120,240,0.0,142,2,0.011
204,left,0.6466117639999993,0.035,6,24,120,24,120,240,0.0,142,2,0.1148
205,right,1.0716591169996263,0.005,6,24,120,24,120,240,0.0,142,1,0.0164
206,left,1.4135333669999,0.0096,1,24,120,24,120,240,0.0,142,1,0.0117
207,left,1.2358540979996633,0.0183,1,24,120,24,120,240,0.0,142,2,0.0223
208,left,2.91798342900006,0.005,2,24,120,24,120,240,0.0,142,1,0.0074
209,right,1.0641010930000903,0.0183,7,24,120,24,120,240,0.0,142,1,0.0732
210,left,1.0310216589998618,0.035,5,24,120,24,120,240,0.0,142,2,0.0942
211,left,1.2258300259998123,0.035,1,24,120,24,120,240,0.0,142,2,0.0427
212,right,1.0717711429995234,0.0096,5,24,120,24,120,240,0.0,142,1,0.0258
213,right,0.9138752479996128,0.035,2,24,120,24,120,240,0.0,142,1,0.052
214,left,0.9128321529999539,0.035,4,24,120,24,120,240,0.0,142,2,0.0773
215,left,1.4680041479998636,0.0183,3,24,120,24,120,240,0.0,142,2,0.0331
216,left,1.081421882999848,0.035,7,24,120,24,120,240,0.0,142,2,0.14
217,right,1.2725402789999407,0.005,7,24,120,24,120,240,0.0,142,1,0.02
218,right,1.1555143460002455,0.0183,3,24,120,24,120,240,0.0,142,1,0.0331
219,left,1.0681759439996767,0.0096,6,24,120,24,120,240,0.0,142,2,0.0315
220,right,0.6016478519998145,0.035,7,24,120,24,120,240,0.0,142,1,0.14
221,left,1.0899454279999645,0.0096,2,24,120,24,120,240,0.0,142,2,0.0143
222,right,2.5056908549997843,0.0183,1,24,120,24,120,240,0.0,142,1,0.0223
223,left,0.797811480000064,0.0183,5,24,120,24,120,240,0.0,142,2,0.0493
224,right,0.9814172640001289,0.0183,5,24,120,24,120,240,0.0,142,1,0.0493
